* Measurement data measured by REW V5.20
* Source: ASIO hdspfire, Analog 1 (1)
* Format: 256k Log Swept Sine, 1 sweep at -12.0 dBFS using a loopback as a timing reference
* Dated: 2021/09/24 15:51:01
* REW Settings:
*  C-weighting compensation: Off
*  Target level: 75.0 dB
* Note: Delay 0.0000 ms (0 mm, 0 in)  relative to Loopback from 1: Analog 1 (1) to 1: Analog 1 (1) with no timing offset
* Measurement: Edifier NeoBuds Pro R
* Smoothing: None
* Frequency Step: 1/24 octave
* Start Frequency: 20.000 Hz
*
* Freq(Hz)	SPL(dB)	Phase(degrees)
20.000000	96.9	114.3846
20.600000	97.1	111.4807
21.200001	97.4	108.7258
21.799999	97.6	106.0391
22.400000	97.8	103.3585
23.000000	98.0	100.7699
23.600000	98.2	98.3597
24.299999	98.4	95.6673
25.000000	98.7	92.9380
25.799999	98.9	89.9124
26.500000	99.0	87.4340
27.200001	99.2	84.9966
28.000000	99.4	82.3531
29.000000	99.6	79.3449
30.000000	99.8	76.1770
30.700001	99.9	74.0723
31.500000	100.0	71.9452
32.500000	100.1	69.1973
33.500000	100.2	66.5248
34.500000	100.4	64.2515
35.500000	100.5	61.8218
36.500000	100.6	59.4897
37.500000	100.7	57.3716
38.700001	100.8	54.5727
40.000000	100.9	51.8174
41.200001	101.0	49.6082
42.500000	101.2	46.8839
43.700001	101.2	44.2036
45.000000	101.2	42.1006
46.200001	101.2	39.9915
47.500000	101.3	37.7972
48.700001	101.3	35.8517
50.000000	101.3	33.8420
51.500000	101.4	31.6650
53.000000	101.4	29.5723
54.500000	101.4	27.5693
56.000000	101.4	25.5975
58.000000	101.4	23.1170
60.000000	101.4	20.6144
61.500000	101.4	18.8787
63.000000	101.4	17.3540
65.000000	101.3	15.2106
67.000000	101.3	13.0367
69.000000	101.3	11.1281
71.000000	101.3	9.0259
73.000000	101.2	7.6052
75.000000	101.1	5.8979
77.500000	101.1	3.6277
80.000000	101.0	1.6990
82.500000	100.9	-0.1778
85.000000	100.8	-2.0481
87.500000	100.7	-3.5248
90.000000	100.6	-3.5702
92.500000	100.5	-6.9182
95.000000	100.3	-8.3730
97.500000	100.2	-9.8926
100.000000	100.1	-11.1755
103.000000	100.0	-12.6409
106.000000	99.8	-14.1935
109.000000	99.7	-15.5107
112.000000	99.5	-16.7142
115.000000	99.4	-17.9561
118.000000	99.2	-19.0145
122.000000	99.0	-20.3870
125.000000	98.8	-21.3238
128.000000	98.7	-22.1527
132.000000	98.5	-23.2101
136.000000	98.2	-24.0877
140.000000	98.0	-24.9221
145.000000	97.8	-25.6892
150.000000	97.5	-26.4619
155.000000	97.3	-26.9122
160.000000	97.0	-26.9236
165.000000	96.7	-27.2634
170.000000	96.5	-27.1827
175.000000	96.4	-26.5511
180.000000	96.1	-25.6042
185.000000	96.2	-25.6154
190.000000	96.1	-25.4148
195.000000	96.1	-26.0692
200.000000	96.0	-26.2108
206.000000	95.9	-26.3934
212.000000	95.8	-26.4448
218.000000	95.7	-26.4094
224.000000	95.6	-26.3994
230.000000	95.5	-26.4813
236.000000	95.4	-26.4301
243.000000	95.3	-26.4641
250.000000	95.3	-26.5330
258.000000	95.2	-26.5185
265.000000	95.1	-26.5740
272.000000	95.1	-26.5933
280.000000	95.0	-26.6348
290.000000	95.0	-26.7544
300.000000	94.9	-26.7156
307.000000	94.9	-26.7802
315.000000	94.8	-26.8311
325.000000	94.8	-27.0740
335.000000	94.7	-27.3325
345.000000	94.7	-27.4658
355.000000	94.6	-27.6963
365.000000	94.6	-27.9446
375.000000	94.5	-28.1210
387.000000	94.5	-28.3337
400.000000	94.4	-28.5640
412.000000	94.3	-28.6922
425.000000	94.3	-28.9340
437.000000	94.2	-28.9865
450.000000	94.2	-29.1230
462.000000	94.1	-29.1843
475.000000	94.1	-29.2302
487.000000	94.1	-29.2810
500.000000	94.0	-29.2721
515.000000	94.0	-29.3174
530.000000	94.0	-29.3436
545.000000	93.9	-29.3423
560.000000	93.9	-29.2373
580.000000	93.9	-29.1700
600.000000	93.9	-29.0835
615.000000	93.9	-28.9808
630.000000	93.9	-29.0548
650.000000	94.0	-29.1935
670.000000	94.0	-29.3539
690.000000	94.0	-29.5168
710.000000	94.1	-29.6583
730.000000	94.1	-29.7220
750.000000	94.1	-29.8121
775.000000	94.2	-29.9323
800.000000	94.3	-30.0070
825.000000	94.4	-30.1426
850.000000	94.5	-30.2662
875.000000	94.6	-30.4409
900.000000	94.7	-30.6373
925.000000	94.8	-30.8804
950.000000	95.0	-31.2378
975.000000	95.2	-31.6708
1000.000000	95.3	-32.2063
1030.000000	95.5	-32.9781
1060.000000	95.8	-33.9370
1090.000000	96.0	-35.0672
1120.000000	96.2	-36.3195
1150.000000	96.4	-37.7435
1180.000000	96.5	-39.2232
1220.000000	96.8	-41.3265
1250.000000	96.9	-42.9681
1280.000000	97.0	-44.6085
1320.000000	97.2	-46.8149
1360.000000	97.3	-48.9858
1400.000000	97.4	-51.1124
1450.000000	97.6	-53.7312
1500.000000	97.7	-56.3092
1550.000000	97.9	-58.8925
1600.000000	98.0	-61.5555
1650.000000	98.2	-64.2057
1700.000000	98.3	-67.0189
1750.000000	98.5	-69.9274
1800.000000	98.6	-72.9814
1850.000000	98.7	-76.1776
1900.000000	98.8	-79.3903
1950.000000	98.8	-82.6625
2000.000000	98.8	-85.8933
2060.000000	98.8	-89.6242
2120.000000	98.7	-93.1334
2180.000000	98.7	-96.4291
2240.000000	98.7	-99.4849
2300.000000	98.6	-102.4236
2360.000000	98.7	-105.3185
2430.000000	98.8	-109.0438
2500.000000	99.0	-113.4359
2580.000000	99.1	-119.2610
2650.000000	99.2	-124.8101
2720.000000	99.2	-130.7395
2800.000000	99.2	-137.9155
2900.000000	99.1	-147.7241
3000.000000	98.9	-158.5812
3070.000000	98.7	-166.7266
3150.000000	98.3	-176.5402
3250.000000	97.8	170.5588
3350.000000	97.1	156.9460
3450.000000	96.5	142.7159
3550.000000	95.9	127.8458
3650.000000	95.4	112.4658
3750.000000	95.1	96.8793
3870.000000	95.2	78.7175
4000.000000	95.8	60.0663
4120.000000	96.7	43.9641
4250.000000	98.0	27.5388
4370.000000	99.4	12.0017
4500.000000	100.7	-7.9878
4620.000000	101.3	-28.8734
4750.000000	100.7	-50.4099
4870.000000	99.3	-65.4622
5000.000000	97.5	-75.4489
5150.000000	95.5	-80.3931
5300.000000	93.8	-80.3766
5450.000000	92.5	-76.9489
5600.000000	91.6	-71.6278
5800.000000	91.0	-63.3879
6000.000000	90.9	-54.8306
6150.000000	91.0	-48.7590
6300.000000	91.4	-42.5654
6500.000000	92.1	-34.6730
6700.000000	93.0	-27.1104
6900.000000	94.5	-20.1674
7100.000000	96.4	-14.9092
7300.000000	98.9	-13.5555
7500.000000	102.1	-20.6891
7750.000000	104.8	-53.0779
8000.000000	102.2	-83.5089
8250.000000	98.6	-90.1166
8500.000000	96.1	-86.9366
8750.000000	94.2	-79.9659
9000.000000	92.8	-70.9854
9250.000000	91.9	-61.1462
9500.000000	91.3	-50.9150
9750.000000	90.9	-40.5110
10000.000000	90.8	-30.0303
10300.000000	91.0	-17.6414
10600.000000	91.4	-5.6548
10900.000000	92.2	5.2817
11200.000000	93.3	14.5259
11500.000000	94.5	21.7123
11800.000000	95.9	25.3044
12200.000000	97.2	24.4849
12500.000000	97.4	22.1550
12800.000000	96.9	22.0435
13200.000000	95.9	30.0867
13600.000000	96.0	44.6469
14000.000000	97.1	57.3792
14500.000000	100.2	68.4811
15000.000000	103.6	35.7290
15500.000000	98.8	23.3541
16000.000000	93.5	34.6533
16500.000000	90.6	63.2104
17000.000000	89.5	95.6223
17500.000000	89.9	128.5718
18000.000000	91.9	158.9443
18500.000000	95.9	178.7654
19000.000000	99.0	168.8408
19500.000000	97.0	165.2256
20000.000000	95.3	174.2871
20600.000000	89.9	-167.0388
21200.000000	83.9	-102.0743
21800.000000	77.7	-10.0109
