* Measurement data measured by REW V5.20
* Source: ASIO MOTU M Series, In 1
* Format: 256k Log Swept Sine, 1 sweep at -12.0 dBFS using a loopback as a timing reference
* Dated: 2022/02/09 9:35:58
* REW Settings:
*  C-weighting compensation: Off
*  Target level: 75.0 dB
* Note: Delay -272.5097 ms (-93.471 m, -(306 ft 8 in))  relative to Loopback from 1: Out 1 to 2: In 2 with no timing offset
* Measurement: NFAUDIO NM2+ R
* Smoothing: 1/48 octave
* Frequency Step: 1/24 octave
* Start Frequency: 20.000 Hz
*
* Freq(Hz)	SPL(dB)	Phase(degrees)
20.000000	94.2	46.8323
20.600000	94.3	103.8994
21.200001	94.4	160.8999
21.799999	94.4	-141.5137
22.400000	94.5	-83.4712
23.000000	94.6	-25.6030
23.600000	94.8	31.8892
24.299999	94.9	99.0547
25.000000	95.0	166.6025
25.799999	95.1	-116.2812
26.500000	95.2	-48.9131
27.200001	95.3	18.7629
28.000000	95.4	96.2349
29.000000	95.5	-167.3250
30.000000	95.6	-70.6125
30.700001	95.7	-2.7681
31.500000	95.7	74.9006
32.500000	95.9	172.1392
33.500000	95.9	-91.1370
34.500000	96.0	5.9744
35.500000	96.1	103.0459
36.500000	96.2	-160.0083
37.500000	96.3	-62.8906
38.700001	96.3	53.2607
40.000000	96.3	-179.3979
41.200001	96.4	-62.7959
42.500000	96.5	63.8467
43.700001	96.6	-179.3789
45.000000	96.6	-53.0161
46.200001	96.6	64.0298
47.500000	96.7	-169.5244
48.700001	96.7	-52.6777
50.000000	96.7	74.0479
51.500000	96.7	-139.0801
53.000000	96.8	6.7744
54.500000	96.9	152.9395
56.000000	96.9	-60.8467
58.000000	97.0	134.0420
60.000000	97.0	-30.3765
61.500000	97.0	116.2183
63.000000	97.0	-97.3101
65.000000	97.1	98.1074
67.000000	97.1	-66.5376
69.000000	97.1	128.8330
71.000000	97.1	-35.6816
73.000000	97.1	159.8799
75.000000	97.2	-4.6099
77.500000	97.2	-120.1938
80.000000	97.2	124.2910
82.500000	97.2	8.8096
85.000000	97.2	-106.6963
87.500000	97.2	137.8223
90.000000	97.3	22.3027
92.500000	97.2	-93.1934
95.000000	97.2	151.8574
97.500000	97.2	36.5781
100.000000	97.2	-78.6982
103.000000	97.2	-145.0703
106.000000	97.2	148.5908
109.000000	97.2	82.3750
112.000000	97.2	16.1582
115.000000	97.2	-50.1182
118.000000	97.2	-116.3301
122.000000	97.2	-84.5439
125.000000	97.2	-150.6836
128.000000	97.1	143.1445
132.000000	97.1	175.0283
136.000000	97.1	-153.0771
140.000000	97.1	-121.1914
145.000000	97.0	8.7256
150.000000	97.0	138.3906
155.000000	97.0	-91.3213
160.000000	97.0	38.6650
165.000000	96.9	168.7227
170.000000	96.9	-61.2012
175.000000	96.7	68.9141
180.000000	96.5	-160.9863
185.000000	96.5	-30.7773
190.000000	96.5	99.5371
195.000000	96.5	-130.0469
200.000000	96.5	0.5547
206.000000	96.4	-131.0195
212.000000	96.4	97.3457
218.000000	96.4	-34.3301
224.000000	96.3	-165.9941
230.000000	96.3	62.3359
236.000000	96.2	-69.2578
243.000000	96.2	-102.7637
250.000000	96.1	-136.5078
258.000000	96.0	-71.6133
265.000000	95.9	-105.0391
272.000000	95.9	-138.4004
280.000000	95.8	-73.6797
290.000000	95.7	-172.6934
300.000000	95.6	88.5000
307.000000	95.5	55.0723
315.000000	95.5	119.9316
325.000000	95.4	21.0430
335.000000	95.3	-77.8008
345.000000	95.2	-176.6680
355.000000	95.1	84.5703
365.000000	95.0	-14.1367
375.000000	94.9	-112.8711
387.000000	94.8	-15.3008
400.000000	94.7	-179.3750
412.000000	94.6	-81.9336
425.000000	94.5	113.8906
437.000000	94.4	-148.4062
450.000000	94.3	47.1953
462.000000	94.2	145.2891
475.000000	94.1	-18.7109
487.000000	94.1	79.1211
500.000000	94.0	-84.9766
515.000000	93.9	-52.5312
530.000000	93.8	-20.1875
545.000000	93.7	12.0586
560.000000	93.6	44.5625
580.000000	93.6	-152.1953
600.000000	93.4	11.0117
615.000000	93.4	43.6406
630.000000	93.3	76.2109
650.000000	93.3	-120.4883
670.000000	93.2	43.2344
690.000000	93.1	-153.1641
710.000000	93.0	10.5156
730.000000	93.0	174.3125
750.000000	93.0	-22.0156
775.000000	92.9	-86.8438
800.000000	92.9	-151.6875
825.000000	93.0	143.5703
850.000000	93.0	79.1797
875.000000	93.1	14.5625
900.000000	93.3	-49.9062
925.000000	93.6	-114.4375
950.000000	93.9	-179.5078
975.000000	94.2	115.2031
1000.000000	94.6	49.2188
1030.000000	95.0	113.5938
1060.000000	95.4	177.4688
1090.000000	95.7	-118.9219
1120.000000	96.0	-55.4609
1150.000000	96.3	7.9453
1180.000000	96.5	71.2500
1220.000000	96.8	35.6875
1250.000000	97.0	98.9844
1280.000000	97.2	162.3125
1320.000000	97.4	126.7578
1360.000000	97.7	91.2344
1400.000000	97.9	55.7344
1450.000000	98.2	-78.5312
1500.000000	98.6	147.2344
1550.000000	98.9	12.9688
1600.000000	99.4	-121.2969
1650.000000	99.7	104.4688
1700.000000	99.8	-29.8438
1750.000000	100.0	-164.2188
1800.000000	100.4	61.2969
1850.000000	100.8	-73.3125
1900.000000	101.3	151.9062
1950.000000	101.8	16.9844
2000.000000	102.3	-118.1406
2060.000000	102.8	7.4062
2120.000000	103.4	132.6094
2180.000000	103.9	-102.5781
2240.000000	104.4	21.8438
2300.000000	104.9	145.8438
2360.000000	105.4	-90.5312
2430.000000	105.8	-66.7656
2500.000000	106.2	-43.3594
2580.000000	106.4	-119.6562
2650.000000	106.5	-96.3594
2720.000000	106.5	-72.8750
2800.000000	106.4	-148.3750
2900.000000	106.2	-61.8750
3000.000000	105.9	25.7812
3070.000000	105.7	51.7812
3150.000000	105.5	-20.8125
3250.000000	105.4	68.7812
3350.000000	105.4	158.5625
3450.000000	105.4	-111.3438
3550.000000	105.3	-21.0625
3650.000000	105.4	69.2500
3750.000000	105.5	159.4688
3870.000000	105.8	51.3750
4000.000000	106.4	-156.7188
4120.000000	106.8	93.0625
4250.000000	107.3	-118.2188
4370.000000	107.7	127.6875
4500.000000	107.8	-87.8750
4620.000000	107.4	155.5625
4750.000000	106.4	-59.6875
4870.000000	105.3	-173.3125
5000.000000	103.9	-23.8750
5150.000000	102.4	-70.1562
5300.000000	100.9	-114.0625
5450.000000	99.6	-156.2500
5600.000000	98.4	162.7500
5800.000000	97.0	-10.9375
6000.000000	95.9	176.1875
6150.000000	95.2	137.0625
6300.000000	94.6	98.1875
6500.000000	94.0	-73.3750
6700.000000	93.6	115.3125
6900.000000	93.4	-55.8125
7100.000000	93.3	133.1250
7300.000000	93.3	-38.2500
7500.000000	93.6	150.3750
7750.000000	94.8	-154.1875
8000.000000	97.0	-99.2500
8250.000000	99.4	-45.9375
8500.000000	102.3	4.0000
8750.000000	106.3	43.3125
9000.000000	109.3	54.6250
9250.000000	106.5	64.2500
9500.000000	102.5	102.3125
9750.000000	99.7	151.5000
10000.000000	98.0	-155.9375
10300.000000	96.8	124.7500
10600.000000	96.4	45.7500
10900.000000	96.6	-34.0000
11200.000000	97.7	-116.1250
11500.000000	99.8	156.1250
11800.000000	102.3	54.1250
12200.000000	101.4	17.2500
12500.000000	97.8	-83.5000
12800.000000	94.6	-171.0000
13200.000000	91.6	-160.3750
13600.000000	89.8	-146.8750
14000.000000	88.8	-132.6250
14500.000000	89.0	-26.2500
15000.000000	90.7	74.5000
15500.000000	93.0	159.5000
16000.000000	92.7	-129.5000
16500.000000	90.0	-46.5000
17000.000000	88.3	48.5000
17500.000000	88.2	141.5000
18000.000000	87.7	-141.5000
18500.000000	83.4	-56.7500
19000.000000	81.6	61.2500
19500.000000	84.1	146.8750
20000.000000	83.0	-145.3750
20600.000000	77.6	-9.0000
21200.000000	67.5	-131.0000
21800.000000	67.7	179.2500
