* Measurement data measured by REW V5.20
* Source: ASIO MOTU M Series, In 1
* Format: 256k Log Swept Sine, 1 sweep at -12.0 dBFS using a loopback as a timing reference
* Dated: 2022/03/02 16:01:25
* REW Settings:
*  C-weighting compensation: Off
*  Target level: 75.0 dB
* Note: Delay 324.0093 ms (111.135 m, 364 ft 7 in)  relative to Loopback from 1: Out 1 to 2: In 2 with no timing offset
* Measurement: Sudio E2 RC1
* Smoothing: 1/12 octave
* Frequency Step: 1/24 octave
* Start Frequency: 20.000 Hz
*
* Freq(Hz)	SPL(dB)	Phase(degrees)
20.000000	96.6	-36.4480
20.600000	97.1	-110.1951
21.200001	97.5	175.9824
21.799999	97.9	102.1587
22.400000	98.3	28.4070
23.000000	98.7	-45.2637
23.600000	99.1	-118.8979
24.299999	99.5	155.2095
25.000000	99.9	69.3557
25.799999	100.3	-28.6697
26.500000	100.6	-114.3911
27.200001	100.9	159.8748
28.000000	101.2	61.8838
29.000000	101.5	-60.5381
30.000000	101.8	177.0269
30.700001	102.0	91.2996
31.500000	102.2	-6.6389
32.500000	102.3	-129.0708
33.500000	102.4	108.5164
34.500000	102.4	-13.6143
35.500000	102.4	-135.4795
36.500000	102.3	102.8564
37.500000	102.2	-18.5127
38.700001	101.9	-163.7012
40.000000	101.6	39.5776
41.200001	101.3	-104.6641
42.500000	101.0	99.5225
43.700001	100.7	-43.8794
45.000000	100.4	161.1543
46.200001	100.1	18.4487
47.500000	99.7	-135.7949
48.700001	99.4	82.1133
50.000000	99.1	-71.5625
51.500000	98.8	111.3491
53.000000	98.4	-65.5034
54.500000	98.1	117.8687
56.000000	97.9	-58.5576
58.000000	97.5	66.4443
60.000000	97.2	-168.3740
61.500000	96.9	15.5977
63.000000	96.7	-160.2759
65.000000	96.5	-34.5542
67.000000	96.2	91.1875
69.000000	96.0	-143.0215
71.000000	95.8	-17.1191
73.000000	95.6	108.8848
75.000000	95.4	-125.0322
77.500000	95.2	-57.6143
80.000000	95.0	9.8477
82.500000	94.8	77.7793
85.000000	94.5	145.4814
87.500000	94.2	-148.6211
90.000000	93.8	-83.1924
92.500000	93.6	-14.0791
95.000000	93.7	55.1934
97.500000	93.4	124.1270
100.000000	93.0	-167.0303
103.000000	92.6	-155.3301
106.000000	92.7	-142.4785
109.000000	92.9	-131.0283
112.000000	93.1	-121.5088
115.000000	93.2	-112.5205
118.000000	93.1	-103.3838
122.000000	93.1	149.0498
125.000000	93.0	158.5469
128.000000	92.9	168.1602
132.000000	92.8	61.0908
136.000000	92.7	-45.8643
140.000000	92.6	-152.7227
145.000000	92.5	-16.1309
150.000000	92.4	120.6055
155.000000	92.3	-102.6152
160.000000	92.3	34.2168
165.000000	92.2	171.1211
170.000000	92.2	-51.9609
175.000000	92.1	84.8984
180.000000	92.0	-138.2891
185.000000	92.0	-1.5312
190.000000	92.1	135.1660
195.000000	92.2	-88.2148
200.000000	92.2	48.3496
206.000000	92.3	68.1836
212.000000	92.3	87.9648
218.000000	92.3	107.6934
224.000000	92.4	127.3984
230.000000	92.4	147.0684
236.000000	92.5	166.6875
243.000000	92.5	69.5801
250.000000	92.6	-27.5312
258.000000	92.6	118.5586
265.000000	92.7	21.3711
272.000000	92.7	-75.8359
280.000000	92.8	70.2109
290.000000	92.8	-17.2188
300.000000	92.9	-104.6719
307.000000	92.9	158.0781
315.000000	93.0	-55.9102
325.000000	93.1	-143.4141
335.000000	93.1	129.0703
345.000000	93.2	41.5586
355.000000	93.3	-45.9609
365.000000	93.4	-133.5391
375.000000	93.4	138.7930
387.000000	93.5	177.5039
400.000000	93.6	99.3516
412.000000	93.7	137.8984
425.000000	93.8	59.5625
437.000000	93.9	97.9297
450.000000	94.0	19.3789
462.000000	94.0	57.5547
475.000000	94.1	-21.1719
487.000000	94.1	16.8438
500.000000	94.1	-62.0391
515.000000	94.1	-14.6445
530.000000	94.1	32.7148
545.000000	94.0	80.0781
560.000000	93.9	127.4844
580.000000	93.7	-49.1641
600.000000	93.4	134.3750
615.000000	93.2	-177.8125
630.000000	93.0	-129.8125
650.000000	92.6	54.4609
670.000000	92.3	-120.9766
690.000000	91.9	63.9141
710.000000	91.5	-110.9062
730.000000	91.2	74.5391
750.000000	90.8	-99.7812
775.000000	90.4	-137.3906
800.000000	90.0	-174.7188
825.000000	89.6	148.1953
850.000000	89.2	111.3125
875.000000	88.8	74.6016
900.000000	88.5	38.0938
925.000000	88.1	1.7812
950.000000	87.8	-34.3359
975.000000	87.5	-70.2656
1000.000000	87.2	-106.0312
1030.000000	86.9	-4.8750
1060.000000	86.7	96.2969
1090.000000	86.5	-162.6797
1120.000000	86.4	-61.8281
1150.000000	86.3	38.7812
1180.000000	86.2	139.2031
1220.000000	86.1	152.8438
1250.000000	86.0	-107.0469
1280.000000	85.9	-7.0156
1320.000000	85.7	6.3281
1360.000000	85.5	19.7031
1400.000000	85.3	33.1719
1450.000000	85.0	-39.8281
1500.000000	84.8	-112.5000
1550.000000	84.5	175.1562
1600.000000	84.3	103.2656
1650.000000	83.9	31.8438
1700.000000	83.4	-39.0312
1750.000000	83.0	-109.2812
1800.000000	82.7	-178.9844
1850.000000	82.6	111.9062
1900.000000	82.6	43.2188
1950.000000	82.7	-25.2031
2000.000000	83.0	-93.5312
2060.000000	83.5	112.2969
2120.000000	84.2	-42.3438
2180.000000	85.0	162.1875
2240.000000	85.9	5.7188
2300.000000	86.9	-151.8125
2360.000000	87.9	49.5625
2430.000000	89.1	163.1250
2500.000000	90.3	-84.7812
2580.000000	91.5	-61.1875
2650.000000	92.4	48.3438
2720.000000	93.0	157.1875
2800.000000	93.6	178.6250
2900.000000	94.0	25.8750
3000.000000	94.2	-126.0625
3070.000000	94.2	-15.8750
3150.000000	94.3	7.8438
3250.000000	94.3	-141.7188
3350.000000	94.3	69.5312
3450.000000	94.3	-78.6250
3550.000000	94.3	133.6562
3650.000000	94.2	-13.6875
3750.000000	94.2	-160.7812
3870.000000	94.3	-120.9375
4000.000000	94.5	-167.5625
4120.000000	94.6	-127.2500
4250.000000	94.8	-173.4375
4370.000000	94.9	-132.7500
4500.000000	95.2	-178.5000
4620.000000	95.5	-137.5625
4750.000000	95.9	176.7500
4870.000000	96.4	-142.5000
5000.000000	97.1	171.1875
5150.000000	98.0	-49.3750
5300.000000	99.0	88.3750
5450.000000	99.9	-136.0625
5600.000000	100.6	-2.7500
5800.000000	100.8	52.7500
6000.000000	100.3	109.1875
6150.000000	99.5	-115.7500
6300.000000	98.6	21.7500
6500.000000	97.4	88.6250
6700.000000	96.4	158.2500
6900.000000	95.7	-130.3125
7100.000000	95.4	-57.8125
7300.000000	95.4	14.8125
7500.000000	96.1	87.1250
7750.000000	98.0	85.8750
8000.000000	100.9	80.0000
8250.000000	103.6	64.3125
8500.000000	105.0	35.5000
8750.000000	104.1	2.3750
9000.000000	101.5	-22.2500
9250.000000	98.2	-36.6250
9500.000000	94.8	-43.2500
9750.000000	91.6	-44.6250
10000.000000	88.9	-42.6250
10300.000000	86.3	-110.5000
10600.000000	84.1	-176.6250
10900.000000	82.2	118.1250
11200.000000	80.7	53.8750
11500.000000	79.6	-9.8750
11800.000000	78.7	-73.2500
12200.000000	78.2	82.1250
12500.000000	78.1	17.3750
12800.000000	78.1	-48.5000
13200.000000	78.3	104.0000
13600.000000	78.8	-103.8750
14000.000000	79.9	47.3750
14500.000000	82.8	54.0000
15000.000000	87.1	49.6250
15500.000000	90.1	18.0000
16000.000000	88.5	-24.5000
16500.000000	83.7	-38.2500
17000.000000	79.4	-34.6250
17500.000000	77.0	-27.3750
18000.000000	76.2	-22.5000
18500.000000	76.6	-26.7500
19000.000000	76.3	-47.0000
19500.000000	73.7	-70.5000
20000.000000	68.8	-86.0000
20600.000000	61.4	51.0000
21200.000000	54.2	69.7500
21800.000000	48.9	20.5000
