* Measurement data measured by REW V5.20
* Source: ASIO MOTU M Series, In 1
* Format: 256k Log Swept Sine, 1 sweep at -12.0 dBFS using a loopback as a timing reference
* Dated: 2022/02/06 19:51:32
* REW Settings:
*  C-weighting compensation: Off
*  Target level: 75.0 dB
* Note: Delay 2,328.4477 ms (798.658 m, 2620 ft 3 in)  relative to Loopback from 1: Out 1 to 2: In 2 with no timing offset
* Measurement: ZA ZIRCO NERO R
* Smoothing: 1/12 octave
* Frequency Step: 1/24 octave
* Start Frequency: 20.000 Hz
*
* Freq(Hz)	SPL(dB)	Phase(degrees)
20.000000	111.9	-162.4639
20.600000	111.9	-76.7361
21.200001	111.8	9.0273
21.799999	111.8	94.8242
22.400000	111.8	-179.3472
23.000000	111.7	-93.4880
23.600000	111.7	-7.6006
24.299999	111.7	92.6333
25.000000	111.6	-167.0994
25.799999	111.6	-52.4675
26.500000	111.5	47.8708
27.200001	111.5	148.2395
28.000000	111.4	-97.0166
29.000000	111.3	46.4697
30.000000	111.2	-169.9893
30.700001	111.2	-69.4834
31.500000	111.1	45.4067
32.500000	111.0	-170.9312
33.500000	110.9	-27.2080
34.500000	110.8	116.5522
35.500000	110.8	-99.6592
36.500000	110.7	44.1665
37.500000	110.6	-171.9653
38.700001	110.5	0.7329
40.000000	110.3	-172.1333
41.200001	110.2	0.6338
42.500000	110.1	-172.1387
43.700001	110.0	0.7388
45.000000	109.9	-171.9370
46.200001	109.8	1.0098
47.500000	109.6	-171.5942
48.700001	109.5	1.4248
50.000000	109.4	-171.1045
51.500000	109.2	45.2568
53.000000	109.1	-98.3306
54.500000	109.0	118.1177
56.000000	108.8	-25.3999
58.000000	108.6	-96.6914
60.000000	108.5	-167.9258
61.500000	108.3	48.6865
63.000000	108.2	-94.6729
65.000000	108.0	-165.7764
67.000000	107.9	123.1709
69.000000	107.7	52.1680
71.000000	107.5	-18.7969
73.000000	107.3	-89.7188
75.000000	107.2	-160.6016
77.500000	107.0	-159.1562
80.000000	106.8	-157.6758
82.500000	106.6	-156.1426
85.000000	106.4	-154.5459
87.500000	106.2	-152.8887
90.000000	106.0	-151.1299
92.500000	105.8	-149.4619
95.000000	105.7	-147.8828
97.500000	105.5	-146.1787
100.000000	105.3	-144.4033
103.000000	105.1	-70.2393
106.000000	105.0	3.9570
109.000000	104.8	78.1973
112.000000	104.6	152.4629
115.000000	104.4	-133.2520
118.000000	104.2	-58.9375
122.000000	104.0	160.1758
125.000000	103.8	-125.4590
128.000000	103.7	-51.0703
132.000000	103.4	168.1406
136.000000	103.2	27.3867
140.000000	103.0	-113.3457
145.000000	102.8	-109.2188
150.000000	102.5	-105.0430
155.000000	102.3	-100.8438
160.000000	102.1	-96.6133
165.000000	101.9	-92.3516
170.000000	101.7	-88.0645
175.000000	101.4	-83.7500
180.000000	101.1	-79.4180
185.000000	100.9	-75.0605
190.000000	100.8	-70.6816
195.000000	100.6	-66.2871
200.000000	100.5	-61.8730
206.000000	100.3	87.4414
212.000000	100.1	-123.2188
218.000000	99.8	26.1367
224.000000	99.6	175.5195
230.000000	99.4	-35.0742
236.000000	99.3	114.3672
243.000000	99.1	48.7734
250.000000	98.9	-16.7422
258.000000	98.6	62.7617
265.000000	98.5	-2.6172
272.000000	98.3	-68.1484
280.000000	98.2	11.0000
290.000000	98.0	19.7852
300.000000	97.8	28.6289
307.000000	97.6	-37.1094
315.000000	97.5	42.1094
325.000000	97.3	51.1875
335.000000	97.0	60.3164
345.000000	96.8	69.4609
355.000000	96.7	78.6289
365.000000	96.5	87.8242
375.000000	96.3	97.0195
387.000000	96.1	36.0625
400.000000	95.9	120.0391
412.000000	95.7	59.1094
425.000000	95.5	143.1094
437.000000	95.4	82.1953
450.000000	95.2	166.1953
462.000000	95.1	105.3047
475.000000	94.9	-170.6484
487.000000	94.8	128.4609
500.000000	94.6	-147.5000
515.000000	94.5	-133.5938
530.000000	94.4	-119.6797
545.000000	94.2	-105.7344
560.000000	94.1	-91.8203
580.000000	93.9	-73.2266
600.000000	93.8	-54.6250
615.000000	93.7	-40.6562
630.000000	93.6	-26.6719
650.000000	93.5	-8.0234
670.000000	93.4	10.6562
690.000000	93.3	29.3516
710.000000	93.2	48.0625
730.000000	93.2	66.7812
750.000000	93.1	85.5234
775.000000	93.1	108.9688
800.000000	93.1	132.4375
825.000000	93.1	155.8750
850.000000	93.2	179.3047
875.000000	93.3	-157.3281
900.000000	93.3	-134.0469
925.000000	93.5	-110.8438
950.000000	93.6	-87.7969
975.000000	93.8	-64.9375
1000.000000	93.9	-42.2812
1030.000000	94.1	-15.3906
1060.000000	94.3	11.2969
1090.000000	94.5	38.0625
1120.000000	94.7	64.5938
1150.000000	94.9	90.6406
1180.000000	95.1	116.3750
1220.000000	95.3	150.5312
1250.000000	95.4	176.1875
1280.000000	95.5	-158.0625
1320.000000	95.6	-123.5312
1360.000000	95.8	-88.9219
1400.000000	95.9	-54.2812
1450.000000	96.1	-10.9688
1500.000000	96.4	32.3438
1550.000000	96.6	75.6250
1600.000000	96.9	118.9688
1650.000000	97.1	162.2656
1700.000000	97.2	-154.4219
1750.000000	97.3	-111.1250
1800.000000	97.5	-67.8438
1850.000000	97.9	-24.6250
1900.000000	98.2	18.5625
1950.000000	98.5	61.7500
2000.000000	98.9	104.8750
2060.000000	99.3	156.5000
2120.000000	99.8	-151.9688
2180.000000	100.2	-100.5312
2240.000000	100.7	-49.2812
2300.000000	101.2	1.8750
2360.000000	101.7	52.8750
2430.000000	102.4	112.0625
2500.000000	103.0	170.9062
2580.000000	103.8	-122.2500
2650.000000	104.6	-64.1875
2720.000000	105.3	-6.7500
2800.000000	106.1	58.2500
2900.000000	107.2	138.1875
3000.000000	108.0	-143.2812
3070.000000	108.6	-89.0938
3150.000000	109.0	-27.7500
3250.000000	109.4	48.6562
3350.000000	109.4	125.4375
3450.000000	109.3	-156.8125
3550.000000	109.0	-77.8750
3650.000000	108.5	2.3125
3750.000000	108.1	83.5625
3870.000000	107.8	-177.7500
4000.000000	107.5	-69.8750
4120.000000	107.3	30.2500
4250.000000	107.1	139.1250
4370.000000	107.1	-120.3125
4500.000000	107.3	-11.5000
4620.000000	107.5	88.6875
4750.000000	108.0	-163.4375
4870.000000	108.5	-64.8125
5000.000000	109.1	40.5000
5150.000000	109.9	159.3750
5300.000000	110.3	-84.7500
5450.000000	110.2	29.2500
5600.000000	109.5	143.5625
5800.000000	107.7	-59.7500
6000.000000	105.8	102.1250
6150.000000	104.3	-133.9375
6300.000000	103.0	-8.4375
6500.000000	101.4	160.8125
6700.000000	99.9	-28.5625
6900.000000	98.7	143.3750
7100.000000	97.6	-44.0625
7300.000000	96.7	128.7500
7500.000000	96.1	-58.2500
7750.000000	96.0	158.5000
8000.000000	96.5	14.8750
8250.000000	97.0	-128.7500
8500.000000	97.5	87.2500
8750.000000	98.1	-57.3750
9000.000000	99.2	156.6250
9250.000000	100.9	7.7500
9500.000000	102.9	-146.5000
9750.000000	104.6	49.2500
10000.000000	105.0	-123.3750
10300.000000	103.2	104.7500
10600.000000	100.0	-12.7500
10900.000000	96.8	-120.1250
11200.000000	94.3	137.2500
11500.000000	92.5	36.2500
11800.000000	91.2	-63.7500
12200.000000	90.2	-76.5000
12500.000000	89.9	-176.1250
12800.000000	89.9	84.0000
13200.000000	90.7	70.0000
13600.000000	92.7	53.6250
14000.000000	96.3	29.6250
14500.000000	99.8	58.0000
15000.000000	97.7	73.2500
15500.000000	92.0	124.2500
16000.000000	86.9	-166.7500
16500.000000	83.7	-93.5000
17000.000000	82.0	-19.5000
17500.000000	81.3	54.2500
18000.000000	81.6	127.0000
18500.000000	83.0	-164.5000
19000.000000	85.0	-108.5000
19500.000000	85.6	-71.0000
20000.000000	83.2	-39.7500
20600.000000	77.2	-36.7500
21200.000000	70.4	-152.5000
21800.000000	65.0	-39.0000
