* Measurement data measured by REW V5.20 Beta 61
* Source: USB-C to 3.5mm Headphone Jack Adapter, USB-C to 3.5mm Headphone Jack Adapter, 0, volume: 0.138. Timing signal peak level -16.0 dBFS, measurement signal peak level -16.2 dBFS
* Format: 256k Log Swept Sine, 1 sweep at -12.0 dBFS using an acoustic timing reference
* Dated: Jul 7, 2023 2:50:22 PM
* REW Settings:
*  C-weighting compensation: Off
*  Target level: 75.0 dB
* Note: Delay -0.0976 ms (-33 mm, -1.32 in) using estimated IR delay relative to Acoustic reference on USB-C to 3.5mm Headphone Jack Adapter R with no timing offset
* Measurement: r
* Smoothing: None
* Frequency Step: 1/48 octave
* Start Frequency: 20.300 Hz
*
* Freq(Hz)	SPL(dB)	Phase(degrees)
20.299999	94.238731	34.6996
20.600000	94.260033	34.2345
20.900000	94.279106	33.8229
21.200001	94.305229	33.3975
21.400000	94.327835	33.0940
21.799999	94.382645	32.4400
22.000000	94.412506	32.0983
22.400000	94.470734	31.4247
22.700001	94.509186	30.9667
23.000000	94.541283	30.5748
23.299999	94.566971	30.2461
23.600000	94.586273	29.9604
24.000000	94.601830	29.6007
24.299999	94.605927	29.3126
24.700001	94.603470	28.8799
25.000000	94.600029	28.5181
25.400000	94.601570	27.9952
25.799999	94.619217	27.4371
26.200001	94.656235	26.8533
26.500000	94.693481	26.4100
26.900000	94.747940	25.8368
27.200001	94.786247	25.4430
27.600000	94.828300	24.9890
28.000000	94.857994	24.6175
28.500000	94.880348	24.2237
29.000000	94.892570	23.8293
29.500000	94.901535	23.3884
30.000000	94.914833	22.9077
30.400000	94.932144	22.5152
30.700001	94.949028	22.2241
31.100000	94.973892	21.8456
31.500000	94.997009	21.4828
32.000000	95.017776	21.0616
32.500000	95.029846	20.6817
33.000000	95.040855	20.3226
33.500000	95.057892	19.9431
34.000000	95.081085	19.5158
34.500000	95.104416	19.0630
35.000000	95.123329	18.6346
35.500000	95.138252	18.2576
36.000000	95.151299	17.9052
36.500000	95.161797	17.5367
37.000000	95.168571	17.1514
37.500000	95.175285	16.7873
38.200001	95.197495	16.3429
38.700001	95.222229	16.0323
39.500000	95.249695	15.5032
40.000000	95.252640	15.1950
40.599998	95.252739	14.8554
41.200001	95.258774	14.4840
41.799999	95.267143	14.0716
42.500000	95.277641	13.6353
43.099998	95.294846	13.3233
43.700001	95.318565	12.9951
44.400002	95.340919	12.5596
45.000000	95.349350	12.1922
45.500000	95.348938	11.9222
46.200001	95.337753	11.6258
46.799999	95.326767	11.4513
47.500000	95.332581	11.2175
48.200001	95.355110	10.7710
48.700001	95.365929	10.3522
49.400002	95.366028	9.8458
50.000000	95.365479	9.5803
50.799999	95.374359	9.3133
51.500000	95.380608	9.0176
52.200001	95.384949	8.6673
53.000000	95.393684	8.2394
53.799999	95.397102	7.8602
54.500000	95.393326	7.6180
55.200001	95.389648	7.3954
56.000000	95.389603	7.0847
57.000000	95.401382	6.6309
58.000000	95.409103	6.1649
59.000000	95.399658	5.8215
60.000000	95.401344	5.4801
60.799999	95.403778	5.1373
61.500000	95.404716	4.8755
62.200001	95.408821	4.6353
63.000000	95.408173	4.3346
64.000000	95.399597	3.9871
65.000000	95.399933	3.6346
66.000000	95.396477	3.2863
67.000000	95.395699	2.9829
68.000000	95.392738	2.6270
69.000000	95.385216	2.3103
70.000000	95.385254	2.0191
71.000000	95.382988	1.7027
72.000000	95.375351	1.3842
73.000000	95.368919	1.0699
74.000000	95.366127	0.7558
75.000000	95.361809	0.4638
76.199997	95.353760	0.1464
77.500000	95.346367	-0.2193
78.800003	95.338326	-0.6110
80.000000	95.330559	-0.9111
81.199997	95.323235	-1.2410
82.500000	95.312370	-1.5924
83.800003	95.302742	-1.9259
85.000000	95.290329	-2.2261
86.199997	95.280838	-2.5192
87.500000	95.272354	-2.8363
88.500000	95.262108	-3.0839
90.000000	95.245934	-3.4514
91.199997	95.236465	-3.7352
92.500000	95.223236	-4.0262
93.800003	95.208099	-4.3232
95.000000	95.197006	-4.5748
96.199997	95.186279	-4.8470
97.500000	95.172264	-5.1248
98.800003	95.155769	-5.4227
100.000000	95.144096	-5.6650
101.500000	95.126335	-5.9949
103.000000	95.107925	-6.2651
104.400002	95.091614	-6.5640
106.000000	95.073975	-6.8860
107.500000	95.055618	-7.1616
109.000000	95.038422	-7.4644
110.599998	95.015373	-7.7653
112.000000	94.999695	-8.0170
113.800003	94.976006	-8.3371
115.000000	94.957314	-8.5547
117.199997	94.930260	-8.9381
118.000000	94.919800	-9.0794
120.599998	94.882065	-9.5153
122.000000	94.863235	-9.7273
124.099998	94.835678	-10.0829
125.000000	94.823921	-10.2196
126.500000	94.799217	-10.4614
128.000000	94.778015	-10.6917
131.500000	94.725235	-11.2069
132.000000	94.717896	-11.2801
134.000000	94.687683	-11.5834
136.000000	94.658981	-11.8687
138.000000	94.627426	-12.1546
140.000000	94.594376	-12.4199
143.000000	94.550865	-12.8285
145.000000	94.515617	-13.0844
147.500000	94.475067	-13.3976
150.000000	94.434242	-13.7127
152.500000	94.391205	-13.9849
155.000000	94.348000	-14.2844
157.500000	94.304222	-14.5847
160.000000	94.259270	-14.8396
162.500000	94.214737	-15.1020
165.000000	94.168900	-15.3431
167.500000	94.119682	-15.5825
170.000000	94.070786	-15.8027
172.500000	94.023170	-16.0070
175.000000	93.970032	-16.2129
177.500000	93.917297	-16.3994
180.000000	93.859779	-16.5572
182.500000	93.800232	-16.7005
185.000000	93.738426	-16.8049
187.500000	93.675453	-16.8601
190.000000	93.608253	-16.8507
192.500000	93.538269	-16.7641
195.000000	93.467789	-16.5465
197.500000	93.406021	-16.1880
200.000000	93.368645	-15.5938
203.000000	93.384827	-14.6810
206.000000	93.514236	-13.8802
209.000000	93.715729	-13.8669
212.000000	93.875435	-14.7782
214.000000	93.928909	-15.5715
218.000000	93.921036	-17.0497
220.000000	93.887268	-17.6382
224.000000	93.801323	-18.5281
227.000000	93.732391	-19.0441
230.000000	93.660416	-19.4446
233.000000	93.597137	-19.7824
236.000000	93.535683	-20.0804
240.000000	93.454689	-20.3812
243.000000	93.399490	-20.6227
247.000000	93.328995	-20.8904
250.000000	93.273872	-21.0527
254.000000	93.202858	-21.2829
258.000000	93.139664	-21.4913
262.000000	93.072510	-21.6713
265.000000	93.025703	-21.8187
269.000000	92.965683	-21.9677
272.000000	92.922066	-22.0790
276.000000	92.861977	-22.2253
280.000000	92.803894	-22.3769
285.000000	92.733658	-22.5094
290.000000	92.661942	-22.6604
295.000000	92.594147	-22.7665
300.000000	92.524544	-22.9113
304.000000	92.475449	-22.9983
307.000000	92.433960	-23.0589
311.000000	92.381172	-23.1458
315.000000	92.327187	-23.2234
320.000000	92.264618	-23.2999
325.000000	92.203934	-23.3566
330.000000	92.139305	-23.4303
335.000000	92.078514	-23.4930
340.000000	92.017838	-23.5615
345.000000	91.955185	-23.5639
350.000000	91.902168	-23.6008
355.000000	91.838806	-23.6305
360.000000	91.780861	-23.6749
365.000000	91.725082	-23.6661
370.000000	91.670258	-23.6707
375.000000	91.612389	-23.6566
382.000000	91.530121	-23.6345
387.000000	91.479912	-23.5932
395.000000	91.386406	-23.5397
400.000000	91.335220	-23.4640
406.000000	91.266342	-23.3176
412.000000	91.203003	-23.1594
418.000000	91.152298	-22.9755
425.000000	91.083420	-22.6661
431.000000	91.054855	-22.3439
437.000000	91.037964	-22.1092
444.000000	91.037270	-21.9487
450.000000	91.033005	-21.9923
455.000000	91.028366	-22.0563
462.000000	90.993675	-22.2111
468.000000	90.956085	-22.3343
475.000000	90.905052	-22.3905
482.000000	90.848450	-22.4608
487.000000	90.809898	-22.4652
494.000000	90.753525	-22.4097
500.000000	90.708496	-22.4123
508.000000	90.650490	-22.3204
515.000000	90.593422	-22.2400
522.000000	90.546204	-22.1514
530.000000	90.491425	-22.0533
538.000000	90.438911	-21.8972
545.000000	90.385239	-21.7785
552.000000	90.341957	-21.6534
560.000000	90.292412	-21.5186
570.000000	90.231064	-21.3010
580.000000	90.170319	-21.0727
590.000000	90.120117	-20.8520
600.000000	90.070168	-20.6027
608.000000	90.024071	-20.4328
615.000000	89.986824	-20.2689
622.000000	89.955643	-20.0599
630.000000	89.917679	-19.8587
640.000000	89.873573	-19.6057
650.000000	89.828804	-19.3069
660.000000	89.784981	-19.0402
670.000000	89.742508	-18.7527
680.000000	89.708107	-18.4619
690.000000	89.672119	-18.1176
700.000000	89.633148	-17.8505
710.000000	89.602829	-17.5159
720.000000	89.577927	-17.1469
730.000000	89.544197	-16.8348
740.000000	89.515167	-16.4656
750.000000	89.492638	-16.1513
762.000000	89.470016	-15.7126
775.000000	89.445068	-15.2226
788.000000	89.422630	-14.7138
800.000000	89.408386	-14.3187
812.000000	89.389999	-13.8236
825.000000	89.389008	-13.3014
838.000000	89.380013	-12.8135
850.000000	89.382416	-12.3304
862.000000	89.384575	-11.8350
875.000000	89.396667	-11.3118
885.000000	89.406387	-10.8812
900.000000	89.427277	-10.3178
912.000000	89.447762	-9.8373
925.000000	89.477913	-9.2877
938.000000	89.512482	-8.7894
950.000000	89.552773	-8.3852
962.000000	89.588524	-7.9551
975.000000	89.640945	-7.5148
988.000000	89.696198	-7.0755
1000.000000	89.745956	-6.7226
1015.000000	89.814522	-6.3034
1030.000000	89.890839	-5.9823
1044.000000	89.964752	-5.6625
1060.000000	90.046677	-5.3984
1075.000000	90.130585	-5.1871
1090.000000	90.205795	-5.0031
1106.000000	90.289574	-4.9147
1120.000000	90.363785	-4.8626
1138.000000	90.454056	-4.8558
1150.000000	90.503899	-4.8790
1172.000000	90.595284	-5.0156
1180.000000	90.627266	-5.0394
1206.000000	90.709213	-5.2451
1220.000000	90.746475	-5.4146
1241.000000	90.792458	-5.6152
1250.000000	90.806160	-5.7259
1265.000000	90.828186	-5.8415
1280.000000	90.845894	-5.9896
1315.000000	90.857826	-6.2287
1320.000000	90.856155	-6.2658
1340.000000	90.851685	-6.3547
1360.000000	90.837303	-6.3246
1380.000000	90.816254	-6.3049
1400.000000	90.796761	-6.2326
1430.000000	90.753662	-5.9520
1450.000000	90.727982	-5.6966
1475.000000	90.695930	-5.2695
1500.000000	90.666924	-4.7929
1525.000000	90.643745	-4.1932
1550.000000	90.630730	-3.5249
1575.000000	90.617546	-2.7509
1600.000000	90.624374	-1.9595
1625.000000	90.642586	-1.1231
1650.000000	90.668556	-0.2137
1675.000000	90.709038	0.7168
1700.000000	90.770645	1.6715
1725.000000	90.845825	2.6145
1750.000000	90.933609	3.5203
1775.000000	91.036270	4.4065
1800.000000	91.148468	5.2081
1825.000000	91.276184	5.9804
1850.000000	91.419556	6.6298
1875.000000	91.563271	7.2400
1900.000000	91.720207	7.7014
1925.000000	91.873672	8.0614
1950.000000	92.030746	8.3409
1975.000000	92.183197	8.4862
2000.000000	92.329056	8.5388
2030.000000	92.497414	8.4368
2060.000000	92.653145	8.2071
2090.000000	92.780609	7.9091
2120.000000	92.887062	7.4964
2140.000000	92.945290	7.2022
2180.000000	93.030876	6.6075
2200.000000	93.065056	6.2994
2240.000000	93.091103	5.7169
2270.000000	93.093498	5.3128
2300.000000	93.074699	4.9991
2330.000000	93.044296	4.7275
2360.000000	92.997261	4.5468
2400.000000	92.932495	4.3682
2430.000000	92.869125	4.3593
2470.000000	92.776749	4.4508
2500.000000	92.707031	4.6193
2540.000000	92.607010	4.8664
2580.000000	92.503593	5.2174
2620.000000	92.405617	5.6930
2650.000000	92.325829	6.0619
2690.000000	92.223099	6.6251
2720.000000	92.152840	7.0699
2760.000000	92.048157	7.7060
2800.000000	91.948021	8.3514
2850.000000	91.819443	9.2363
2900.000000	91.689468	10.1732
2950.000000	91.551727	11.1324
3000.000000	91.417336	12.1753
3040.000000	91.298729	13.0547
3070.000000	91.212578	13.7178
3110.000000	91.079193	14.6651
3150.000000	90.945450	15.6658
3200.000000	90.769180	16.9814
3250.000000	90.580582	18.3740
3300.000000	90.382996	19.9191
3350.000000	90.181099	21.6094
3400.000000	89.961868	23.4594
3450.000000	89.747978	25.4560
3500.000000	89.524643	27.7046
3550.000000	89.306778	30.1338
3600.000000	89.087021	32.8228
3650.000000	88.877678	35.6482
3700.000000	88.690147	38.8429
3750.000000	88.531601	42.2352
3820.000000	88.368187	47.3522
3870.000000	88.309013	51.1347
3950.000000	88.339516	57.3974
4000.000000	88.424622	61.1362
4060.000000	88.576874	65.3605
4120.000000	88.766510	69.0942
4180.000000	88.928131	72.5448
4250.000000	89.079239	76.5310
4310.000000	89.202072	80.0215
4370.000000	89.353661	83.6876
4440.000000	89.610298	87.9277
4500.000000	89.892990	91.2342
4550.000000	90.148109	93.6898
4620.000000	90.522186	96.4523
4680.000000	90.819611	98.3921
4750.000000	91.113998	100.1492
4820.000000	91.344543	101.6129
4870.000000	91.467094	102.5364
4940.000000	91.567947	103.8680
5000.000000	91.600769	105.0828
5080.000000	91.600876	106.9301
5150.000000	91.554268	108.8085
5220.000000	91.490845	111.0332
5300.000000	91.400528	113.9087
5380.000000	91.314331	117.1264
5450.000000	91.247597	120.2157
5520.000000	91.200500	123.4813
5600.000000	91.163559	127.5342
5700.000000	91.169472	132.8771
5800.000000	91.241867	138.4134
5900.000000	91.391518	144.1661
6000.000000	91.625641	149.9901
6080.000000	91.865242	154.6714
6150.000000	92.127182	158.7793
6220.000000	92.439095	162.7498
6300.000000	92.866760	167.1938
6400.000000	93.490883	172.4685
6500.000000	94.244629	177.2561
6600.000000	95.125229	-178.7399
6700.000000	96.141129	-175.6957
6800.000000	97.276749	-174.1891
6900.000000	98.489853	-174.9195
7000.000000	99.648338	-178.4706
7100.000000	100.500496	174.9461
7200.000000	100.772850	166.6312
7300.000000	100.449097	158.8262
7400.000000	99.669647	153.3930
7500.000000	98.712234	150.8429
7620.000000	97.599358	150.8991
7750.000000	96.588974	153.4959
7880.000000	95.832329	157.5471
8000.000000	95.357567	161.8570
8120.000000	95.076210	166.1667
8250.000000	94.944839	170.3116
8380.000000	94.967400	173.4637
8500.000000	95.028961	175.0116
8620.000000	95.023544	175.0845
8750.000000	94.725685	174.0245
8850.000000	94.270538	173.9598
9000.000000	93.658600	174.9163
9120.000000	93.077332	175.1084
9250.000000	92.214935	175.8979
9380.000000	91.244675	178.2646
9500.000000	90.369324	-178.1841
9620.000000	89.547722	-173.6758
9750.000000	88.792633	-167.9384
9880.000000	88.170898	-161.5150
10000.000000	87.746155	-155.2520
10150.000000	87.388527	-147.3168
10300.000000	87.267029	-139.4309
10440.000000	87.352585	-132.6413
10600.000000	87.706314	-125.6965
10750.000000	88.286331	-120.6053
10900.000000	89.085693	-117.9027
11060.000000	90.026985	-118.8847
11200.000000	90.579155	-123.3958
11380.000000	90.567589	-133.7410
11500.000000	89.593048	-140.4223
11720.000000	87.518005	-141.5644
11800.000000	86.887581	-141.4391
12060.000000	84.790611	-137.2445
12200.000000	83.823105	-132.9511
12410.000000	82.657349	-124.3835
12500.000000	82.359390	-120.0413
12650.000000	82.143143	-114.7292
12800.000000	81.881149	-109.3089
13150.000000	81.971931	-98.0071
13200.000000	82.031151	-96.8354
13400.000000	82.550720	-92.7924
13600.000000	83.280304	-91.4293
13800.000000	84.160370	-92.9384
14000.000000	84.924889	-97.9546
14300.000000	85.614410	-110.7948
14500.000000	85.729790	-120.8243
14750.000000	85.818611	-134.9294
15000.000000	85.973419	-153.0744
15250.000000	85.507881	-179.4485
15500.000000	83.257416	151.7188
15750.000000	79.899788	130.5348
16000.000000	76.509758	116.2823
16250.000000	73.529572	105.4197
16500.000000	70.704315	96.1865
16750.000000	68.200768	87.3499
17000.000000	65.563583	78.2885
17250.000000	62.982018	68.6116
17500.000000	60.803429	56.9788
17750.000000	58.062233	46.7519
18000.000000	54.702404	30.3440
18250.000000	51.976852	16.1007
18500.000000	48.805485	0.7041
18750.000000	42.633575	-25.7031
19000.000000	35.465519	-45.7986
19250.000000	33.770878	-30.1880
19500.000000	34.076138	-74.0493
19750.000000	28.053221	-103.1877
