* Measurement data measured by REW V5.20 Beta 61
* Source: USB-C to 3.5mm Headphone Jack Adapter, USB-C to 3.5mm Headphone Jack Adapter, 0, volume: 0.138. Timing signal peak level -49.7 dBFS, measurement signal peak level -20.6 dBFS
* Format: 256k Log Swept Sine, 1 sweep at -12.0 dBFS using an acoustic timing reference
* Dated: Nov 2, 2023 2:49:47 PM
* REW Settings:
*  C-weighting compensation: Off
*  Target level: 75.0 dB
* Note: Delay 0.0886 ms (30 mm, 1.2 in) using estimated IR delay relative to Acoustic reference on USB-C to 3.5mm Headphone Jack Adapter R with no timing offset
* Measurement: l
* Smoothing: None
* Frequency Step: 1/48 octave
* Start Frequency: 20.300 Hz
*
* Freq(Hz)	SPL(dB)	Phase(degrees)
20.299999	96.234657	178.4114
20.600000	96.231392	178.0199
20.900000	96.245514	177.5513
21.200001	96.270905	176.8645
21.400000	96.286438	176.2790
21.799999	96.302368	174.9023
22.000000	96.299530	174.1855
22.400000	96.275848	172.8796
22.700001	96.256104	172.1097
23.000000	96.250145	171.5298
23.299999	96.263824	171.0522
23.600000	96.291656	170.5788
24.000000	96.329575	169.8381
24.299999	96.338264	169.1949
24.700001	96.309135	168.3297
25.000000	96.263031	167.7840
25.400000	96.196350	167.2776
25.799999	96.162598	166.9499
26.200001	96.181747	166.5706
26.500000	96.221466	166.1127
26.900000	96.279274	165.2101
27.200001	96.304062	164.3753
27.600000	96.295517	163.2251
28.000000	96.245255	162.2495
28.500000	96.167496	161.4236
29.000000	96.128029	160.8254
29.500000	96.134048	160.0499
30.000000	96.139389	158.9147
30.400000	96.113197	157.9099
30.700001	96.074951	157.2448
31.100000	96.019341	156.6080
31.500000	95.985786	156.2323
32.000000	95.996841	155.8353
32.500000	96.037117	155.1388
33.000000	96.045097	154.0810
33.500000	95.996765	152.9544
34.000000	95.925934	152.0579
34.500000	95.883812	151.3792
35.000000	95.881409	150.6902
35.500000	95.885422	149.8524
36.000000	95.863586	148.9654
36.500000	95.818840	148.1841
37.000000	95.778381	147.5194
37.500000	95.758804	146.8498
38.200001	95.750160	145.7781
38.700001	95.737679	145.0087
39.500000	95.700676	143.9636
40.000000	95.670845	143.3464
40.599998	95.624939	142.5164
41.200001	95.570297	141.6022
41.799999	95.523666	140.6993
42.500000	95.493027	139.7125
43.099998	95.471786	138.9144
43.700001	95.437904	138.1664
44.400002	95.386864	137.3053
45.000000	95.343513	136.4909
45.500000	95.309578	135.7803
46.200001	95.271736	134.8689
46.799999	95.250740	134.1650
47.500000	95.207108	133.3033
48.200001	95.116989	132.5043
48.700001	95.052467	132.0531
49.400002	95.015823	131.3689
50.000000	95.016357	130.4996
50.799999	94.986755	129.2254
51.500000	94.936707	128.4087
52.200001	94.895340	127.7156
53.000000	94.841171	126.8015
53.799999	94.779671	125.8768
54.500000	94.738121	125.0792
55.200001	94.696060	124.2733
56.000000	94.640305	123.4145
57.000000	94.572777	122.3367
58.000000	94.500153	121.2268
59.000000	94.429771	120.1662
60.000000	94.355675	119.1132
60.799999	94.299721	118.3165
61.500000	94.259781	117.6315
62.200001	94.220238	116.9277
63.000000	94.162285	116.1146
64.000000	94.080589	115.1281
65.000000	94.014938	114.0773
66.000000	93.946503	113.0423
67.000000	93.878151	112.2114
68.000000	93.816132	111.3314
69.000000	93.740814	110.3461
70.000000	93.664932	109.4300
71.000000	93.598061	108.5288
72.000000	93.525063	107.6184
73.000000	93.465599	106.7896
74.000000	93.408020	105.9260
75.000000	93.325920	105.1494
76.199997	93.237617	104.0651
77.500000	93.143257	102.8116
78.800003	93.070618	101.7676
80.000000	92.978058	100.8221
81.199997	92.873619	99.5985
82.500000	92.780304	98.6442
83.800003	92.725479	97.7288
85.000000	92.623428	96.7983
86.199997	92.533569	95.8880
87.500000	92.447693	94.9039
88.500000	92.382065	94.2041
90.000000	92.267700	93.1462
91.199997	92.198959	92.2089
92.500000	92.082870	90.9937
93.800003	92.005775	90.3740
95.000000	91.916962	89.6075
96.199997	91.812347	89.0126
97.500000	91.705856	87.8441
98.800003	91.612473	87.0957
100.000000	91.552017	86.4199
101.500000	91.429855	85.6707
103.000000	91.303421	84.8153
104.400002	91.215836	84.4468
106.000000	91.122017	83.8323
107.500000	91.097023	83.1821
109.000000	91.039558	82.5347
110.599998	91.020393	81.6662
112.000000	91.004532	80.7526
113.800003	90.943398	79.2347
115.000000	90.876770	78.2339
117.199997	90.771828	76.9037
118.000000	90.691032	76.7437
120.599998	90.413277	73.5223
122.000000	90.563301	73.7488
124.099998	90.366119	72.5518
125.000000	90.313110	71.8667
126.500000	90.233688	71.1602
128.000000	90.097343	70.4284
131.500000	90.015671	67.1388
132.000000	89.907883	67.6527
134.000000	89.767410	67.2124
136.000000	89.681572	66.2319
138.000000	89.556229	65.2847
140.000000	89.447327	64.3581
143.000000	89.274048	62.9391
145.000000	89.171371	62.0660
147.500000	88.998032	60.9972
150.000000	88.903702	59.8956
152.500000	88.781998	58.8625
155.000000	88.647614	57.8737
157.500000	88.520493	56.8497
160.000000	88.395813	55.8767
162.500000	88.270363	54.9562
165.000000	88.133453	53.9582
167.500000	88.043983	53.0315
170.000000	87.899605	52.1964
172.500000	87.802750	51.2900
175.000000	87.663177	50.3702
177.500000	87.553665	49.5666
180.000000	87.534134	48.1511
182.500000	87.345459	48.2185
185.000000	87.220169	47.2401
187.500000	87.091133	46.4059
190.000000	86.983505	45.6795
192.500000	86.884369	45.0032
195.000000	86.751755	44.2843
197.500000	86.636955	43.5376
200.000000	86.541527	42.9370
203.000000	86.410538	42.1230
206.000000	86.293015	41.3846
209.000000	86.160591	40.6522
212.000000	86.032326	39.9645
214.000000	85.953674	39.4577
218.000000	85.779465	38.6417
220.000000	85.695175	38.2202
224.000000	85.529808	37.4652
227.000000	85.414040	36.8736
230.000000	85.296249	36.3835
233.000000	85.174171	35.8684
236.000000	85.054504	35.4352
240.000000	84.909660	34.8279
243.000000	84.796265	34.4285
247.000000	84.654419	34.0381
250.000000	84.554146	33.6792
254.000000	84.415932	33.3257
258.000000	84.272446	32.8880
262.000000	84.187088	32.4869
265.000000	84.084106	32.4152
269.000000	83.978127	32.1332
272.000000	83.889633	31.8100
276.000000	83.791718	31.7272
280.000000	83.699615	31.4266
285.000000	83.580620	31.2732
290.000000	83.484131	31.1374
295.000000	83.411545	30.9400
300.000000	83.317696	30.8346
304.000000	83.265160	30.8380
307.000000	83.225067	30.7437
311.000000	83.181755	30.6379
315.000000	83.151054	30.4951
320.000000	83.101105	30.3200
325.000000	83.063263	30.2035
330.000000	83.042732	29.9809
335.000000	83.020493	29.7906
340.000000	82.998840	29.5427
345.000000	82.976814	29.2515
350.000000	82.962181	28.9438
355.000000	82.946617	28.6665
360.000000	82.927361	28.3931
365.000000	82.920105	28.0715
370.000000	82.903343	27.7477
375.000000	82.893921	27.3745
382.000000	82.867889	26.9915
387.000000	82.846779	26.5754
395.000000	82.828827	26.0150
400.000000	82.812225	25.6442
406.000000	82.792770	25.2130
412.000000	82.772926	24.7762
418.000000	82.757454	24.3716
425.000000	82.726761	23.9285
431.000000	82.704353	23.4992
437.000000	82.689415	23.1404
444.000000	82.659607	22.6286
450.000000	82.636292	22.2441
455.000000	82.612961	21.9605
462.000000	82.591087	21.5617
468.000000	82.568207	21.2379
475.000000	82.545044	20.7838
482.000000	82.516190	20.4363
487.000000	82.496742	20.2274
494.000000	82.475037	19.8006
500.000000	82.447426	19.4963
508.000000	82.422821	19.1063
515.000000	82.401276	18.7894
522.000000	82.366867	18.4852
530.000000	82.348885	18.1289
538.000000	82.316475	17.8307
545.000000	82.291183	17.5476
552.000000	82.265953	17.2712
560.000000	82.241302	17.0021
570.000000	82.210068	16.6141
580.000000	82.187393	16.3167
590.000000	82.152000	15.9530
600.000000	82.123749	15.7916
608.000000	82.095497	15.5024
615.000000	82.072334	15.3141
622.000000	82.064064	15.1618
630.000000	82.038818	14.9526
640.000000	82.016052	14.7319
650.000000	81.990967	14.5546
660.000000	81.964638	14.2890
670.000000	81.939049	14.2728
680.000000	81.907707	14.0399
690.000000	81.903816	13.8983
700.000000	81.880508	13.8082
710.000000	81.860718	13.7906
720.000000	81.847755	13.7172
730.000000	81.820663	13.6538
740.000000	81.809837	13.5915
750.000000	81.791000	13.5582
762.000000	81.775803	13.5397
775.000000	81.766335	13.6085
788.000000	81.754456	13.6320
800.000000	81.754852	13.7803
812.000000	81.741501	13.9023
825.000000	81.750595	14.0052
838.000000	81.761581	14.2352
850.000000	81.767952	14.3746
862.000000	81.783737	14.6223
875.000000	81.791512	14.8198
885.000000	81.836472	14.9872
900.000000	81.859657	15.3419
912.000000	81.897621	15.6604
925.000000	81.927376	15.8743
938.000000	81.995239	16.2474
950.000000	82.052879	16.4971
962.000000	82.120461	16.8217
975.000000	82.202538	17.0319
988.000000	82.288422	17.3449
1000.000000	82.369316	17.5319
1015.000000	82.468811	17.7657
1030.000000	82.592224	18.1151
1044.000000	82.718277	18.2750
1060.000000	82.855225	18.3637
1075.000000	83.000206	18.4034
1090.000000	83.143845	18.4238
1106.000000	83.309708	18.3176
1120.000000	83.442757	18.1682
1138.000000	83.609436	17.9018
1150.000000	83.725143	17.7524
1172.000000	83.931541	17.2528
1180.000000	84.007385	17.1080
1206.000000	84.242943	16.4389
1220.000000	84.359665	16.0298
1241.000000	84.531090	15.3742
1250.000000	84.604904	15.0583
1265.000000	84.716194	14.6270
1280.000000	84.823647	14.1099
1315.000000	85.074471	12.9991
1320.000000	85.112473	12.7855
1340.000000	85.247154	12.1445
1360.000000	85.381348	11.4668
1380.000000	85.495056	10.7755
1400.000000	85.612648	10.1561
1430.000000	85.789597	9.1958
1450.000000	85.915749	8.6323
1475.000000	86.066360	7.8637
1500.000000	86.224312	7.1551
1525.000000	86.375130	6.3334
1550.000000	86.518867	5.5419
1575.000000	86.683708	4.7519
1600.000000	86.837257	3.9693
1625.000000	86.988419	3.1398
1650.000000	87.143494	2.3449
1675.000000	87.292694	1.5280
1700.000000	87.455040	0.6910
1725.000000	87.614449	-0.0994
1750.000000	87.771255	-0.8688
1775.000000	87.934792	-1.6384
1800.000000	88.114952	-2.4560
1825.000000	88.315170	-3.2527
1850.000000	88.524734	-4.1408
1875.000000	88.744026	-5.3022
1900.000000	88.941559	-6.6049
1925.000000	89.134460	-7.9851
1950.000000	89.293266	-9.3575
1975.000000	89.455078	-10.7342
2000.000000	89.605080	-12.1185
2030.000000	89.790649	-13.7764
2060.000000	89.958549	-15.4822
2090.000000	90.129929	-17.1431
2120.000000	90.288246	-18.9253
2140.000000	90.395012	-20.0590
2180.000000	90.600082	-22.4103
2200.000000	90.696098	-23.6268
2240.000000	90.881470	-25.9622
2270.000000	91.013107	-27.7742
2300.000000	91.139542	-29.6354
2330.000000	91.264343	-31.4408
2360.000000	91.382675	-33.2805
2400.000000	91.533913	-35.7144
2430.000000	91.644043	-37.5805
2470.000000	91.783363	-40.0505
2500.000000	91.880302	-41.9048
2540.000000	92.000359	-44.3807
2580.000000	92.115952	-46.8658
2620.000000	92.225945	-49.3271
2650.000000	92.301132	-51.1685
2690.000000	92.401108	-53.6486
2720.000000	92.469025	-55.4694
2760.000000	92.552307	-57.9529
2800.000000	92.634880	-60.3950
2850.000000	92.727554	-63.3828
2900.000000	92.810677	-66.4021
2950.000000	92.886459	-69.2731
3000.000000	92.972771	-72.0399
3040.000000	93.055901	-74.1661
3070.000000	93.129379	-75.7849
3110.000000	93.243210	-78.0433
3150.000000	93.363052	-80.3753
3200.000000	93.513885	-83.4398
3250.000000	93.656250	-86.7291
3300.000000	93.781448	-90.1221
3350.000000	93.897163	-93.6199
3400.000000	93.984039	-97.2274
3450.000000	94.052834	-100.8286
3500.000000	94.104645	-104.4187
3550.000000	94.138809	-108.0047
3600.000000	94.154755	-111.5901
3650.000000	94.159645	-114.9893
3700.000000	94.167450	-118.2913
3750.000000	94.193375	-121.5774
3820.000000	94.258003	-126.2676
3870.000000	94.308380	-129.8125
3950.000000	94.372131	-135.8694
4000.000000	94.383347	-139.8405
4060.000000	94.360336	-144.6631
4120.000000	94.291580	-149.5573
4180.000000	94.192207	-154.4272
4250.000000	94.025421	-159.9646
4310.000000	93.848228	-164.6770
4370.000000	93.645622	-169.1786
4440.000000	93.392586	-174.2186
4500.000000	93.162323	-178.3833
4550.000000	92.959930	178.2431
4620.000000	92.675522	173.7009
4680.000000	92.432716	169.9039
4750.000000	92.143326	165.6242
4820.000000	91.861763	161.4510
4870.000000	91.652267	158.5254
4940.000000	91.359337	154.3321
5000.000000	91.102196	150.8455
5080.000000	90.724960	146.1899
5150.000000	90.355125	142.1295
5220.000000	89.941292	138.2539
5300.000000	89.424622	134.2897
5380.000000	88.863495	130.7703
5450.000000	88.356125	128.4662
5520.000000	87.879776	126.4813
5600.000000	87.365036	124.8433
5700.000000	86.818985	123.5593
5800.000000	86.391678	122.7416
5900.000000	86.079796	122.0972
6000.000000	85.877312	121.6483
6080.000000	85.797958	121.2361
6150.000000	85.769951	120.8662
6220.000000	85.788239	120.5250
6300.000000	85.861641	119.9355
6400.000000	85.993546	118.9715
6500.000000	86.222740	117.9586
6600.000000	86.556206	116.6368
6700.000000	86.955116	114.7166
6800.000000	87.380463	112.2288
6900.000000	87.842270	109.6841
7000.000000	88.466576	106.1967
7100.000000	89.005379	101.3926
7200.000000	89.534027	96.5224
7300.000000	90.119530	90.6514
7400.000000	90.636543	83.5032
7500.000000	91.026070	75.2297
7620.000000	91.203522	64.5694
7750.000000	91.068680	52.9879
7880.000000	90.521385	41.9101
8000.000000	89.667648	33.8258
8120.000000	88.697517	30.8658
8250.000000	88.264305	31.5760
8380.000000	88.921539	31.9626
8500.000000	90.015282	26.3597
8620.000000	90.661804	15.8813
8750.000000	90.662506	4.0729
8850.000000	90.393936	-3.6976
9000.000000	89.902931	-12.9598
9120.000000	89.569160	-19.0309
9250.000000	89.304779	-24.9628
9380.000000	89.152321	-30.4608
9500.000000	89.070526	-35.4688
9620.000000	89.099243	-40.4375
9750.000000	89.203751	-46.2094
9880.000000	89.310440	-52.6011
10000.000000	89.377457	-58.4418
10150.000000	89.549324	-65.8632
10300.000000	89.744827	-73.6215
10440.000000	89.971352	-81.2262
10600.000000	90.217598	-90.9506
10750.000000	90.355682	-100.5192
10900.000000	90.389374	-110.3251
11060.000000	90.349693	-120.3751
11200.000000	90.320068	-129.0194
11380.000000	90.328064	-139.8695
11500.000000	90.381523	-147.3909
11720.000000	90.556122	-162.2701
11800.000000	90.621651	-168.2792
12060.000000	90.633583	169.6576
12200.000000	90.384689	156.1953
12410.000000	89.429321	135.6257
12500.000000	88.807343	127.2252
12650.000000	87.540115	114.7958
12800.000000	86.137527	104.6796
13150.000000	83.167984	88.3517
13200.000000	82.828011	86.6917
13400.000000	81.621040	80.2998
13600.000000	80.822678	74.6069
13800.000000	80.311264	68.6555
14000.000000	80.078697	61.7679
14300.000000	80.077927	48.9015
14500.000000	80.363464	38.6501
14750.000000	80.931503	23.9949
15000.000000	81.649345	7.0547
15250.000000	82.649689	-12.4081
15500.000000	83.864548	-34.7430
15750.000000	85.226860	-61.4323
16000.000000	86.483887	-92.8011
16250.000000	87.145317	-127.0450
16500.000000	87.880402	-160.0681
16750.000000	89.213463	158.7974
17000.000000	88.868332	109.9945
17250.000000	87.357040	66.2349
17500.000000	85.847839	26.2455
17750.000000	84.558342	-14.1244
18000.000000	83.390984	-56.9133
18250.000000	82.253029	-103.8232
18500.000000	80.913261	-156.6614
18750.000000	79.066643	143.2687
19000.000000	76.404556	75.0973
19250.000000	72.602417	-0.9497
19500.000000	67.297852	-83.7162
19750.000000	60.683086	-175.6115
