* Measurement data measured by REW V5.20 Beta 61
* Source: USB-C to 3.5mm Headphone Jack Adapter, USB-C to 3.5mm Headphone Jack Adapter, 0, volume: 0.138. Timing signal peak level -54.0 dBFS, measurement signal peak level -20.4 dBFS
* Format: 256k Log Swept Sine, 1 sweep at -12.0 dBFS using an acoustic timing reference
* Dated: Jul 29, 2023 10:19:23 AM
* REW Settings:
*  C-weighting compensation: Off
*  Target level: 75.0 dB
* Note: Delay -0.0218 ms (-7.5 mm, -0.29 in) using estimated IR delay relative to Acoustic reference on USB-C to 3.5mm Headphone Jack Adapter R with no timing offset
* Measurement: L
* Smoothing: None
* Frequency Step: 1/48 octave
* Start Frequency: 20.300 Hz
*
* Freq(Hz)	SPL(dB)	Phase(degrees)
20.299999	96.508583	-173.9622
20.600000	96.504761	-174.7536
20.900000	96.494194	-175.4710
21.200001	96.483315	-176.1800
21.400000	96.477249	-176.6487
21.799999	96.468307	-177.5755
22.000000	96.465141	-178.0322
22.400000	96.459824	-178.9276
22.700001	96.455116	-179.5790
23.000000	96.448776	179.7888
23.299999	96.440620	179.1729
23.600000	96.430809	178.5681
24.000000	96.415619	177.7689
24.299999	96.403015	177.1691
24.700001	96.385124	176.3686
25.000000	96.371452	175.7725
25.400000	96.353874	174.9922
25.799999	96.338081	174.2345
26.200001	96.324112	173.4974
26.500000	96.314011	172.9544
26.900000	96.299530	172.2396
27.200001	96.286949	171.7099
27.600000	96.267334	171.0140
28.000000	96.245026	170.3317
28.500000	96.215195	169.4968
29.000000	96.185104	168.6771
29.500000	96.155670	167.8686
30.000000	96.126930	167.0686
30.400000	96.103775	166.4334
30.700001	96.085754	165.9608
31.100000	96.060219	165.3414
31.500000	96.033195	164.7419
32.000000	95.999374	164.0266
32.500000	95.968262	163.3348
33.000000	95.939758	162.6347
33.500000	95.910095	161.9099
34.000000	95.875679	161.1781
34.500000	95.837593	160.4738
35.000000	95.800217	159.8122
35.500000	95.766808	159.1792
36.000000	95.736130	158.5507
36.500000	95.704529	157.9171
37.000000	95.669502	157.2864
37.500000	95.631699	156.6694
38.200001	95.579041	155.8286
38.700001	95.543938	155.2284
39.500000	95.488052	154.2418
40.000000	95.448944	153.6285
40.599998	95.398293	152.9403
41.200001	95.350403	152.3154
41.799999	95.308601	151.7109
42.500000	95.260521	150.9825
43.099998	95.214005	150.3549
43.700001	95.165634	149.7449
44.400002	95.111961	149.0380
45.000000	95.067490	148.4263
45.500000	95.030319	147.9244
46.200001	94.977921	147.2407
46.799999	94.931221	146.6649
47.500000	94.874825	146.0127
48.200001	94.823120	145.3755
48.700001	94.789795	144.9064
49.400002	94.739891	144.2343
50.000000	94.690254	143.6984
50.799999	94.624100	143.0623
51.500000	94.571259	142.4966
52.200001	94.517883	141.8987
53.000000	94.457756	141.2314
53.799999	94.400169	140.5741
54.500000	94.344055	140.0102
55.200001	94.285500	139.4886
56.000000	94.225342	138.8899
57.000000	94.148102	138.0950
58.000000	94.071091	137.3858
59.000000	94.002426	136.6346
60.000000	93.916451	135.8783
60.799999	93.852402	135.3766
61.500000	93.806702	134.9307
62.200001	93.759300	134.4530
63.000000	93.698929	133.9232
64.000000	93.625465	133.2867
65.000000	93.558105	132.5999
66.000000	93.482483	131.8959
67.000000	93.403046	131.3386
68.000000	93.338333	130.8080
69.000000	93.266075	130.2045
70.000000	93.190254	129.6443
71.000000	93.122154	129.0756
72.000000	93.054688	128.5037
73.000000	92.988495	127.9675
74.000000	92.923698	127.4366
75.000000	92.851288	126.8799
76.199997	92.764595	126.2587
77.500000	92.679169	125.5509
78.800003	92.597038	124.9040
80.000000	92.511902	124.3782
81.199997	92.432816	123.7952
82.500000	92.315506	123.0470
83.800003	92.257446	122.5738
85.000000	92.194260	121.9876
86.199997	92.116882	121.5265
87.500000	92.032906	120.9221
88.500000	91.972153	120.5301
90.000000	91.886688	119.8895
91.199997	91.818939	119.3845
92.500000	91.743279	118.8487
93.800003	91.659172	118.3365
95.000000	91.586395	117.8778
96.199997	91.519234	117.3700
97.500000	91.449463	116.9106
98.800003	91.390938	116.3059
100.000000	91.307129	115.9127
101.500000	91.227905	115.4971
103.000000	91.142006	114.8825
104.400002	91.073158	114.4510
106.000000	90.983841	113.9290
107.500000	90.921074	113.2451
109.000000	90.831299	112.8690
110.599998	90.750244	112.3999
112.000000	90.675781	111.9733
113.800003	90.586609	111.4015
115.000000	90.552521	111.1236
117.199997	90.431610	110.5330
118.000000	90.379677	110.1401
120.599998	90.303619	109.3711
122.000000	90.183777	109.0789
124.099998	90.089920	108.4677
125.000000	90.065765	108.2129
126.500000	90.000534	107.7560
128.000000	89.932167	107.3381
131.500000	89.608498	108.1389
132.000000	89.616730	109.0108
134.000000	89.622086	105.4848
136.000000	89.622620	105.3076
138.000000	89.502007	104.7858
140.000000	89.437378	104.4511
143.000000	89.308624	103.7503
145.000000	89.212273	103.2657
147.500000	89.115997	102.8562
150.000000	88.994598	102.2465
152.500000	88.941544	101.8726
155.000000	88.835449	101.4644
157.500000	88.756508	101.0739
160.000000	88.665840	100.7835
162.500000	88.587334	100.3801
165.000000	88.568062	101.0273
167.500000	88.366318	99.5872
170.000000	88.304916	99.6607
172.500000	88.288506	99.5925
175.000000	88.105049	99.4830
177.500000	88.240204	100.4420
180.000000	88.322014	98.7634
182.500000	88.679237	99.5374
185.000000	88.434662	98.1703
187.500000	88.361954	97.3454
190.000000	88.415451	96.6092
192.500000	88.402084	95.6715
195.000000	88.291771	95.0193
197.500000	88.216660	96.1836
200.000000	88.154419	93.3687
203.000000	88.108101	93.0936
206.000000	88.062317	92.3156
209.000000	87.982758	91.6721
212.000000	87.906212	91.1282
214.000000	87.846970	90.4907
218.000000	87.768150	90.0778
220.000000	87.737076	89.7005
224.000000	87.666016	89.0873
227.000000	87.611076	88.5963
230.000000	87.559860	88.1017
233.000000	87.512283	87.6834
236.000000	87.462151	87.2263
240.000000	87.394623	86.6835
243.000000	87.353210	86.2497
247.000000	87.296310	85.6586
250.000000	87.256111	85.2526
254.000000	87.206947	84.7269
258.000000	87.157593	84.2036
262.000000	87.108124	83.6384
265.000000	87.083694	83.2861
269.000000	87.029831	82.8040
272.000000	87.002602	82.4406
276.000000	86.954582	81.9674
280.000000	86.924850	81.4614
285.000000	86.871307	80.8000
290.000000	86.826706	80.2257
295.000000	86.778374	79.6313
300.000000	86.750458	79.0723
304.000000	86.710747	78.6588
307.000000	86.698364	78.2873
311.000000	86.664421	77.8549
315.000000	86.639061	77.4296
320.000000	86.599983	76.9079
325.000000	86.574333	76.3844
330.000000	86.530678	75.6698
335.000000	86.507965	75.3947
340.000000	86.484322	74.8965
345.000000	86.455086	74.4378
350.000000	86.426285	73.9361
355.000000	86.398476	73.5070
360.000000	86.373032	73.0739
365.000000	86.345215	72.5668
370.000000	86.329117	72.1041
375.000000	86.301796	71.6777
382.000000	86.271255	71.0910
387.000000	86.246330	70.7162
395.000000	86.207520	70.1066
400.000000	86.187851	69.7476
406.000000	86.155983	69.3373
412.000000	86.121384	68.9560
418.000000	86.104301	68.6364
425.000000	86.066643	68.2909
431.000000	86.045380	68.0856
437.000000	86.047150	67.9803
444.000000	86.061096	67.7640
450.000000	86.100922	67.6097
455.000000	86.137634	67.3607
462.000000	86.192528	66.8077
468.000000	86.216164	66.1058
475.000000	86.218697	65.4044
482.000000	86.212616	64.7701
487.000000	86.191406	64.3694
494.000000	86.182732	63.8260
500.000000	86.163307	63.4764
508.000000	86.148834	62.9240
515.000000	86.132195	62.5256
522.000000	86.119904	62.1211
530.000000	86.096466	61.6569
538.000000	86.081001	61.2547
545.000000	86.072578	60.9274
552.000000	86.056725	60.5692
560.000000	86.040588	60.2415
570.000000	86.028229	59.8555
580.000000	86.011673	59.4359
590.000000	85.995468	59.0552
600.000000	85.978897	58.7333
608.000000	85.974312	58.4928
615.000000	85.966339	58.2756
622.000000	85.955139	58.0526
630.000000	85.943840	57.8453
640.000000	85.933250	57.5815
650.000000	85.923744	57.3655
660.000000	85.916313	57.1350
670.000000	85.908569	56.9929
680.000000	85.898094	56.8174
690.000000	85.885071	56.6345
700.000000	85.879524	56.4819
710.000000	85.871353	56.4030
720.000000	85.866013	56.3663
730.000000	85.858757	56.2778
740.000000	85.858688	56.2457
750.000000	85.858360	56.2180
762.000000	85.860054	56.2487
775.000000	85.857841	56.2936
788.000000	85.864853	56.3027
800.000000	85.870804	56.4325
812.000000	85.878357	56.4848
825.000000	85.897232	56.6381
838.000000	85.909851	56.8069
850.000000	85.930435	57.0593
862.000000	85.954811	57.3226
875.000000	85.986954	57.6059
885.000000	86.041969	57.8286
900.000000	86.094498	58.1375
912.000000	86.158218	58.3470
925.000000	86.215485	58.5249
938.000000	86.279129	58.7474
950.000000	86.330849	58.9989
962.000000	86.394936	59.1619
975.000000	86.462868	59.4092
988.000000	86.549248	59.6757
1000.000000	86.619804	59.8242
1015.000000	86.714226	60.0517
1030.000000	86.813995	60.2885
1044.000000	86.910950	60.5025
1060.000000	87.030289	60.6828
1075.000000	87.153793	60.8577
1090.000000	87.261292	60.9739
1106.000000	87.392937	61.1512
1120.000000	87.516403	61.2313
1138.000000	87.672852	61.2827
1150.000000	87.788055	61.2901
1172.000000	87.997757	61.2293
1180.000000	88.069328	61.1584
1206.000000	88.325577	60.7063
1220.000000	88.449509	60.4521
1241.000000	88.629204	59.9367
1250.000000	88.705750	59.7202
1265.000000	88.813141	59.2573
1280.000000	88.924164	58.8065
1315.000000	89.142609	57.7188
1320.000000	89.175858	57.5406
1340.000000	89.279991	56.9086
1360.000000	89.378967	56.2757
1380.000000	89.461044	55.6640
1400.000000	89.545303	55.1172
1430.000000	89.651199	54.3306
1450.000000	89.713608	53.8434
1475.000000	89.789383	53.3090
1500.000000	89.862221	52.7736
1525.000000	89.927948	52.3102
1550.000000	89.992981	51.9385
1575.000000	90.056107	51.5212
1600.000000	90.124107	51.1840
1625.000000	90.189598	50.8779
1650.000000	90.252144	50.6440
1675.000000	90.319374	50.3828
1700.000000	90.390884	50.1794
1725.000000	90.459282	49.9876
1750.000000	90.531235	49.8042
1775.000000	90.609489	49.6043
1800.000000	90.682358	49.4719
1825.000000	90.764603	49.3412
1850.000000	90.849487	49.1979
1875.000000	90.934074	49.0705
1900.000000	91.028587	48.9712
1925.000000	91.119217	48.8057
1950.000000	91.213623	48.6985
1975.000000	91.309669	48.5867
2000.000000	91.407410	48.4583
2030.000000	91.534264	48.2738
2060.000000	91.656235	48.0931
2090.000000	91.791710	47.8875
2120.000000	91.921898	47.6428
2140.000000	92.016396	47.4533
2180.000000	92.198059	47.0703
2200.000000	92.294090	46.9015
2240.000000	92.488251	46.4255
2270.000000	92.637749	46.0472
2300.000000	92.785042	45.6238
2330.000000	92.933121	45.1556
2360.000000	93.080223	44.6541
2400.000000	93.277679	43.9149
2430.000000	93.428757	43.3191
2470.000000	93.626175	42.4121
2500.000000	93.774780	41.6905
2540.000000	93.968109	40.6963
2580.000000	94.152443	39.5353
2620.000000	94.332474	38.3302
2650.000000	94.455666	37.3817
2690.000000	94.617004	36.0107
2720.000000	94.730759	34.9366
2760.000000	94.862297	33.4656
2800.000000	94.983673	31.9071
2850.000000	95.113388	29.8938
2900.000000	95.215881	27.8346
2950.000000	95.290222	25.7684
3000.000000	95.335281	23.6733
3040.000000	95.349274	22.0034
3070.000000	95.352608	20.7965
3110.000000	95.332764	19.2126
3150.000000	95.305634	17.6437
3200.000000	95.250648	15.8030
3250.000000	95.173805	14.0598
3300.000000	95.084610	12.4266
3350.000000	94.978630	10.8934
3400.000000	94.861893	9.5231
3450.000000	94.744698	8.2777
3500.000000	94.624283	7.1383
3550.000000	94.499260	6.1094
3600.000000	94.374825	5.1926
3650.000000	94.250053	4.3287
3700.000000	94.134048	3.6449
3750.000000	94.016312	3.0323
3820.000000	93.870621	2.2914
3870.000000	93.774422	1.8226
3950.000000	93.634399	1.2104
4000.000000	93.558632	0.8996
4060.000000	93.485764	0.5731
4120.000000	93.417107	0.2535
4180.000000	93.366211	-0.0527
4250.000000	93.325356	-0.4313
4310.000000	93.298828	-0.7429
4370.000000	93.286629	-1.0577
4440.000000	93.284744	-1.5514
4500.000000	93.290787	-1.9772
4550.000000	93.300827	-2.4187
4620.000000	93.326233	-3.0777
4680.000000	93.360413	-3.8047
4750.000000	93.391365	-4.6738
4820.000000	93.430023	-5.7222
4870.000000	93.455994	-6.5634
4940.000000	93.477264	-7.9243
5000.000000	93.484840	-9.1930
5080.000000	93.474068	-11.0692
5150.000000	93.431915	-12.8943
5220.000000	93.352791	-14.7941
5300.000000	93.213074	-17.0312
5380.000000	93.004356	-19.2094
5450.000000	92.774254	-21.0378
5520.000000	92.479630	-22.6884
5600.000000	92.102440	-24.2102
5700.000000	91.557495	-25.3147
5800.000000	90.982170	-25.4366
5900.000000	90.446495	-24.4013
6000.000000	90.001579	-22.4813
6080.000000	89.750984	-20.3582
6150.000000	89.614700	-18.3275
6220.000000	89.558304	-16.2173
6300.000000	89.592316	-13.9374
6400.000000	89.781059	-11.3875
6500.000000	90.087738	-9.5286
6600.000000	90.464211	-8.5515
6700.000000	90.849693	-8.3532
6800.000000	91.230988	-8.8490
6900.000000	91.576874	-9.7748
7000.000000	91.899292	-11.0100
7100.000000	92.202866	-12.3193
7200.000000	92.536819	-13.8890
7300.000000	92.897713	-15.7010
7400.000000	93.282845	-18.0292
7500.000000	93.703964	-21.0629
7620.000000	94.228439	-25.7549
7750.000000	94.743484	-32.9208
7880.000000	94.991646	-42.5296
8000.000000	94.775528	-52.7158
8120.000000	94.064423	-62.3837
8250.000000	92.854286	-70.6790
8380.000000	91.466873	-75.6699
8500.000000	90.293053	-78.2574
8620.000000	89.139450	-80.1664
8750.000000	87.852020	-80.6835
8850.000000	86.889702	-79.6087
9000.000000	85.705132	-76.0736
9120.000000	84.995667	-72.3033
9250.000000	84.497498	-67.9650
9380.000000	84.251801	-63.5560
9500.000000	84.237701	-59.9164
9620.000000	84.474159	-56.7339
9750.000000	84.904892	-55.2259
9880.000000	85.366913	-55.1490
10000.000000	85.807213	-56.2849
10150.000000	86.303757	-59.8220
10300.000000	86.614426	-64.8796
10440.000000	86.632149	-70.3708
10600.000000	86.414925	-76.2397
10750.000000	86.033531	-81.0628
10900.000000	85.600037	-84.9084
11060.000000	85.150177	-87.9136
11200.000000	84.843338	-90.3502
11380.000000	84.438187	-93.1292
11500.000000	84.274582	-94.0522
11720.000000	84.236893	-97.1316
11800.000000	84.261078	-98.6811
12060.000000	84.382301	-104.4482
12200.000000	84.460060	-108.5804
12410.000000	84.444199	-115.9447
12500.000000	84.348595	-119.4573
12650.000000	84.062477	-124.8398
12800.000000	83.638428	-129.0270
13150.000000	84.302643	-142.7394
13200.000000	83.962128	-145.3906
13400.000000	82.945724	-151.1794
13600.000000	82.465164	-154.4147
13800.000000	82.423538	-156.9381
14000.000000	82.825287	-161.1102
14300.000000	84.016266	-171.0613
14500.000000	85.156036	178.0493
14750.000000	86.510956	156.4767
15000.000000	86.742134	127.7794
15250.000000	85.607162	100.0031
15500.000000	84.053955	78.2422
15750.000000	82.843880	59.8933
16000.000000	82.112091	40.3472
16250.000000	81.664284	17.9974
16500.000000	81.308563	-8.4583
16750.000000	80.618721	-37.8041
17000.000000	79.470795	-69.2760
17250.000000	78.177132	-100.1559
17500.000000	76.791138	-131.2034
17750.000000	75.600700	-162.7185
18000.000000	74.620087	162.8779
18250.000000	73.671150	124.0869
18500.000000	72.503708	80.5394
18750.000000	71.097221	32.9038
19000.000000	69.665787	-21.2502
19250.000000	67.847649	-85.4202
19500.000000	65.123856	-162.9635
19750.000000	60.919678	107.0939
