* Measurement data measured by REW V5.20.4
* Source: Input device not selected, no input selected, L, volume: no control
* Format: 256k Log Swept Sine, 1 sweep at -12,0 dBFS with no timing reference
* Dated: 2023-aug-31 21:24:40
* REW Settings:
*  C-weighting compensation: Off
*  Target level: 75.0 dB
* Note: Stock tips M + stock cable 3.5mm (mic)  Left
* Measurement: KitSound Mini L
* Smoothing: 1/48 octave
* Frequency Step: 1/48 octave
* Start Frequency: 20.300 Hz
*
* Freq(Hz)	SPL(dB)	Phase(degrees)
20.299999	101.491	-5.7568
20.600000	101.463	-6.0773
20.900000	101.429	-6.3820
21.200001	101.399	-6.6877
21.400000	101.385	-6.9008
21.799999	101.363	-7.3493
22.000000	101.354	-7.5807
22.400000	101.335	-8.0381
22.700001	101.320	-8.3590
23.000000	101.304	-8.6508
23.299999	101.288	-8.9174
23.600000	101.271	-9.1698
24.000000	101.247	-9.5064
24.299999	101.229	-9.7737
24.700001	101.201	-10.1562
25.000000	101.179	-10.4572
25.400000	101.151	-10.8631
25.799999	101.127	-11.2595
26.200001	101.109	-11.6433
26.500000	101.099	-11.9269
26.900000	101.085	-12.3040
27.200001	101.071	-12.5830
27.600000	101.045	-12.9378
28.000000	101.011	-13.2573
28.500000	100.964	-13.6098
29.000000	100.925	-13.9674
29.500000	100.894	-14.4013
30.000000	100.868	-14.9239
30.400000	100.847	-15.3605
30.700001	100.830	-15.6680
31.100000	100.807	-16.0276
31.500000	100.784	-16.3327
32.000000	100.758	-16.6769
32.500000	100.732	-17.0290
33.000000	100.702	-17.4085
33.500000	100.669	-17.8051
34.000000	100.635	-18.2057
34.500000	100.604	-18.6044
35.000000	100.574	-18.9959
35.500000	100.544	-19.3724
36.000000	100.513	-19.7321
36.500000	100.481	-20.0832
37.000000	100.450	-20.4372
37.500000	100.419	-20.7994
38.200001	100.378	-21.3136
38.700001	100.349	-21.6780
39.500000	100.299	-22.2467
40.000000	100.265	-22.5895
40.599998	100.222	-22.9842
41.200001	100.182	-23.3672
41.799999	100.147	-23.7554
42.500000	100.107	-24.2201
43.099998	100.072	-24.6060
43.700001	100.035	-24.9714
44.400002	99.993	-25.4021
45.000000	99.957	-25.7890
45.500000	99.927	-26.1061
46.200001	99.890	-26.5278
46.799999	99.860	-26.8914
47.500000	99.815	-27.3219
48.200001	99.760	-27.7016
48.700001	99.723	-27.9413
49.400002	99.684	-28.3101
50.000000	99.652	-28.6903
50.799999	99.602	-29.1928
51.500000	99.554	-29.5573
52.200001	99.512	-29.9071
53.000000	99.465	-30.3508
53.799999	99.414	-30.7977
54.500000	99.368	-31.1629
55.200001	99.320	-31.5158
56.000000	99.262	-31.9115
57.000000	99.191	-32.4012
58.000000	99.124	-32.8917
59.000000	99.056	-33.3485
60.000000	98.990	-33.7995
60.799999	98.938	-34.1856
61.500000	98.893	-34.5205
62.200001	98.849	-34.8385
63.000000	98.797	-35.1937
64.000000	98.729	-35.6386
65.000000	98.661	-36.0634
66.000000	98.598	-36.4715
67.000000	98.534	-36.8869
68.000000	98.465	-37.2838
69.000000	98.400	-37.6706
70.000000	98.337	-38.0671
71.000000	98.274	-38.4552
72.000000	98.209	-38.8367
73.000000	98.140	-39.1946
74.000000	98.077	-39.5647
75.000000	98.014	-39.9577
76.199997	97.939	-40.3803
77.500000	97.864	-40.8159
78.800003	97.788	-41.2595
80.000000	97.716	-41.6548
81.199997	97.646	-42.0390
82.500000	97.569	-42.4620
83.800003	97.488	-42.8658
85.000000	97.418	-43.2193
86.199997	97.347	-43.5628
87.500000	97.264	-43.9411
88.500000	97.202	-44.2164
90.000000	97.120	-44.6285
91.199997	97.046	-44.9630
92.500000	96.961	-45.3332
93.800003	96.882	-45.6676
95.000000	96.813	-45.9530
96.199997	96.738	-46.2577
97.500000	96.661	-46.5828
98.800003	96.585	-46.9065
100.000000	96.512	-47.1849
101.500000	96.426	-47.5403
103.000000	96.339	-47.8988
104.400002	96.259	-48.2123
106.000000	96.167	-48.5646
107.500000	96.082	-48.8911
109.000000	96.008	-49.1900
110.599998	95.925	-49.5202
112.000000	95.851	-49.7968
113.800003	95.761	-50.1446
115.000000	95.699	-50.3797
117.199997	95.590	-50.8168
118.000000	95.548	-50.9417
120.599998	95.406	-51.3959
122.000000	95.342	-51.6269
124.099998	95.233	-51.9601
125.000000	95.185	-52.1099
126.500000	95.104	-52.3698
128.000000	95.025	-52.6237
131.500000	94.850	-53.1090
132.000000	94.824	-53.1780
134.000000	94.718	-53.4892
136.000000	94.620	-53.7851
138.000000	94.521	-54.0548
140.000000	94.417	-54.3514
143.000000	94.259	-54.7235
145.000000	94.162	-54.9471
147.500000	94.037	-55.2418
150.000000	93.918	-55.5411
152.500000	93.803	-55.8306
155.000000	93.698	-56.0695
157.500000	93.594	-56.3556
160.000000	93.484	-56.6595
162.500000	93.377	-56.8403
165.000000	93.281	-57.0611
167.500000	93.174	-57.3091
170.000000	93.081	-57.5381
172.500000	92.982	-57.7729
175.000000	92.879	-57.8852
177.500000	92.783	-58.1423
180.000000	92.693	-58.3623
182.500000	92.602	-58.5197
185.000000	92.502	-58.7148
187.500000	92.413	-58.8800
190.000000	92.325	-59.0217
192.500000	92.229	-59.2196
195.000000	92.131	-59.3906
197.500000	92.028	-59.5241
200.000000	91.940	-59.6431
203.000000	91.832	-59.8059
206.000000	91.716	-59.9952
209.000000	91.608	-60.1453
212.000000	91.498	-60.2613
214.000000	91.427	-60.3450
218.000000	91.285	-60.5491
220.000000	91.213	-60.6454
224.000000	91.074	-60.8071
227.000000	90.971	-60.9236
230.000000	90.863	-61.0391
233.000000	90.765	-61.1258
236.000000	90.663	-61.2126
240.000000	90.529	-61.3928
243.000000	90.430	-61.4566
247.000000	90.307	-61.6313
250.000000	90.209	-61.6228
254.000000	90.088	-61.7801
258.000000	89.956	-61.7930
262.000000	89.841	-61.9864
265.000000	89.741	-62.1005
269.000000	89.618	-62.0587
272.000000	89.546	-62.1578
276.000000	89.417	-62.2888
280.000000	89.299	-62.2888
285.000000	89.163	-62.2604
290.000000	89.045	-62.4335
295.000000	88.897	-62.5319
300.000000	88.750	-62.5517
304.000000	88.635	-62.5912
307.000000	88.559	-62.6195
311.000000	88.459	-62.6020
315.000000	88.363	-62.6248
320.000000	88.247	-62.6787
325.000000	88.121	-62.6657
330.000000	87.992	-62.6426
335.000000	87.870	-62.7047
340.000000	87.754	-62.6771
345.000000	87.644	-62.6980
350.000000	87.528	-62.7140
355.000000	87.410	-62.6604
360.000000	87.299	-62.6021
365.000000	87.186	-62.5969
370.000000	87.077	-62.5312
375.000000	86.977	-62.4678
382.000000	86.823	-62.4311
387.000000	86.721	-62.3627
395.000000	86.571	-62.2868
400.000000	86.479	-62.2070
406.000000	86.361	-62.1741
412.000000	86.251	-62.1071
418.000000	86.141	-62.0724
425.000000	86.017	-61.9746
431.000000	85.912	-61.8128
437.000000	85.803	-61.7050
444.000000	85.685	-61.6127
450.000000	85.580	-61.5174
455.000000	85.498	-61.4430
462.000000	85.381	-61.3287
468.000000	85.279	-61.1987
475.000000	85.168	-61.0856
482.000000	85.061	-60.9318
487.000000	84.979	-60.8311
494.000000	84.872	-60.7297
500.000000	84.781	-60.6208
508.000000	84.663	-60.4512
515.000000	84.553	-60.3272
522.000000	84.446	-60.1920
530.000000	84.328	-60.0556
538.000000	84.216	-59.9142
545.000000	84.111	-59.8314
552.000000	84.005	-59.7728
560.000000	83.889	-59.7024
570.000000	83.731	-59.5131
580.000000	83.569	-59.2664
590.000000	83.415	-58.9959
600.000000	83.286	-58.7476
608.000000	83.183	-58.5559
615.000000	83.103	-58.4864
622.000000	83.023	-58.4008
630.000000	82.919	-58.2446
640.000000	82.778	-58.1224
650.000000	82.626	-58.0172
660.000000	82.459	-57.7550
670.000000	82.279	-57.3747
680.000000	82.127	-56.8358
690.000000	81.962	-56.2058
700.000000	81.828	-55.4639
710.000000	81.714	-54.7338
720.000000	81.597	-54.0629
730.000000	81.483	-53.3526
740.000000	81.389	-52.7324
750.000000	81.290	-52.1494
762.000000	81.202	-51.3997
775.000000	81.092	-50.5990
788.000000	80.980	-49.8659
800.000000	80.880	-49.1346
812.000000	80.792	-48.3943
825.000000	80.690	-47.6469
838.000000	80.575	-46.8542
850.000000	80.482	-46.0359
862.000000	80.392	-45.2058
875.000000	80.289	-44.3432
885.000000	80.229	-43.7859
900.000000	80.172	-42.8682
912.000000	80.122	-42.1424
925.000000	80.072	-41.2734
938.000000	80.018	-40.4088
950.000000	79.970	-39.5690
962.000000	79.925	-38.8252
975.000000	79.865	-38.0242
988.000000	79.807	-37.2102
1000.000000	79.749	-36.5204
1015.000000	79.704	-35.6223
1030.000000	79.678	-34.8349
1044.000000	79.617	-34.0699
1060.000000	79.551	-33.1569
1075.000000	79.486	-32.3715
1090.000000	79.425	-31.6736
1106.000000	79.372	-31.0662
1120.000000	79.319	-30.5973
1138.000000	79.266	-29.9545
1150.000000	79.240	-29.6030
1172.000000	79.188	-28.8800
1180.000000	79.173	-28.6736
1206.000000	79.095	-27.9787
1220.000000	79.060	-27.5968
1241.000000	78.992	-27.0526
1250.000000	78.953	-26.8446
1265.000000	78.906	-26.5380
1280.000000	78.843	-26.1372
1315.000000	78.665	-25.2372
1320.000000	78.641	-25.0906
1340.000000	78.535	-24.5407
1360.000000	78.442	-23.9352
1380.000000	78.359	-23.2591
1400.000000	78.271	-22.5442
1430.000000	78.140	-21.3552
1450.000000	78.050	-20.4082
1475.000000	77.938	-19.2166
1500.000000	77.822	-17.8858
1525.000000	77.724	-16.4763
1550.000000	77.642	-14.9508
1575.000000	77.555	-13.2378
1600.000000	77.495	-11.4943
1625.000000	77.428	-9.5189
1650.000000	77.396	-7.4220
1675.000000	77.401	-5.3957
1700.000000	77.416	-3.2118
1725.000000	77.457	-0.9250
1750.000000	77.545	1.2483
1775.000000	77.672	3.4834
1800.000000	77.823	5.7262
1825.000000	78.016	7.8043
1850.000000	78.266	9.6831
1875.000000	78.536	11.4319
1900.000000	78.819	13.0071
1925.000000	79.141	14.1476
1950.000000	79.494	14.9862
1975.000000	79.841	15.4838
2000.000000	80.188	15.6413
2030.000000	80.562	15.5145
2060.000000	80.907	15.0068
2090.000000	81.211	14.2699
2120.000000	81.463	13.3587
2140.000000	81.601	12.5614
2180.000000	81.802	11.1178
2200.000000	81.870	10.3992
2240.000000	81.963	9.0534
2270.000000	81.982	8.2120
2300.000000	81.979	7.5444
2330.000000	81.972	6.9825
2360.000000	81.948	6.5908
2400.000000	81.881	6.2458
2430.000000	81.831	6.1531
2470.000000	81.753	6.2598
2500.000000	81.692	6.3930
2540.000000	81.625	6.7550
2580.000000	81.559	7.3182
2620.000000	81.494	7.8911
2650.000000	81.447	8.4638
2690.000000	81.409	9.2757
2720.000000	81.396	9.9312
2760.000000	81.377	10.8382
2800.000000	81.356	11.7726
2850.000000	81.363	13.1417
2900.000000	81.391	14.6162
2950.000000	81.457	16.0913
3000.000000	81.570	17.5712
3040.000000	81.684	18.4701
3070.000000	81.783	19.1142
3110.000000	81.911	19.8310
3150.000000	82.031	20.3401
3200.000000	82.176	21.0030
3250.000000	82.298	21.6467
3300.000000	82.417	22.2541
3350.000000	82.536	22.8242
3400.000000	82.659	23.4303
3450.000000	82.786	23.9491
3500.000000	82.900	24.4453
3550.000000	83.026	24.8973
3600.000000	83.148	25.3176
3650.000000	83.264	25.7509
3700.000000	83.378	26.1059
3750.000000	83.489	26.4207
3820.000000	83.642	26.8385
3870.000000	83.752	27.0952
3950.000000	83.917	27.4647
4000.000000	84.021	27.7011
4060.000000	84.139	28.0338
4120.000000	84.255	28.3166
4180.000000	84.370	28.6326
4250.000000	84.496	29.0428
4310.000000	84.599	29.4558
4370.000000	84.716	29.8748
4440.000000	84.871	30.3295
4500.000000	85.002	30.7874
4550.000000	85.108	31.2234
4620.000000	85.265	31.8446
4680.000000	85.417	32.3710
4750.000000	85.610	33.0043
4820.000000	85.808	33.6968
4870.000000	85.963	34.1603
4940.000000	86.190	34.8035
5000.000000	86.390	35.3185
5080.000000	86.692	35.9180
5150.000000	86.979	36.3511
5220.000000	87.286	36.7728
5300.000000	87.668	37.0618
5380.000000	88.083	37.2066
5450.000000	88.469	37.1260
5520.000000	88.873	36.8046
5600.000000	89.373	36.1490
5700.000000	90.057	34.6026
5800.000000	90.776	31.9249
5900.000000	91.460	27.9285
6000.000000	92.031	22.5082
6080.000000	92.336	17.4654
6150.000000	92.472	12.7727
6220.000000	92.493	8.1003
6300.000000	92.388	2.9273
6400.000000	92.073	-3.0550
6500.000000	91.554	-7.2036
6600.000000	91.387	-10.1827
6700.000000	91.044	-15.6076
6800.000000	90.389	-19.3653
6900.000000	89.710	-21.5601
7000.000000	89.065	-22.6808
7100.000000	88.505	-23.0646
7200.000000	88.058	-23.0566
7300.000000	87.709	-22.8955
7400.000000	87.441	-22.7238
7500.000000	87.242	-22.5202
7620.000000	87.129	-22.4123
7750.000000	87.159	-22.7062
7880.000000	87.354	-23.7034
8000.000000	87.639	-25.7823
8120.000000	87.965	-29.3818
8250.000000	88.254	-35.3519
8380.000000	88.310	-43.4487
8500.000000	87.998	-52.1385
8620.000000	87.282	-60.7508
8750.000000	86.148	-68.5825
8850.000000	85.100	-73.0159
9000.000000	83.408	-77.0729
9120.000000	82.053	-78.3796
9250.000000	80.653	-78.2812
9380.000000	79.359	-76.8870
9500.000000	78.238	-74.8670
9620.000000	77.204	-72.1490
9750.000000	76.154	-68.6688
9880.000000	75.194	-64.7430
10000.000000	74.371	-60.8313
10150.000000	73.473	-55.5793
10300.000000	72.651	-50.1597
10440.000000	71.935	-44.7635
10600.000000	71.278	-38.5809
10750.000000	70.704	-32.4566
10900.000000	70.210	-26.0928
11060.000000	69.746	-19.6180
11200.000000	69.428	-14.1109
11380.000000	69.117	-6.5408
11500.000000	68.965	-1.4662
11720.000000	68.766	7.4774
11800.000000	68.735	10.7106
12060.000000	68.729	21.4492
12200.000000	68.842	26.7392
12410.000000	69.188	35.0752
12500.000000	69.413	38.4820
12650.000000	69.905	43.6416
12800.000000	70.509	48.2776
13150.000000	72.301	56.7620
13200.000000	72.626	57.6663
13400.000000	74.192	59.4398
13600.000000	76.108	57.0855
13800.000000	78.092	47.4055
14000.000000	79.154	29.0970
14300.000000	77.640	2.0877
14500.000000	75.528	-6.1264
14750.000000	73.043	-7.7015
15000.000000	71.162	-4.2646
15250.000000	69.842	0.9924
15500.000000	68.991	6.4696
15750.000000	68.436	11.5815
16000.000000	68.048	16.2245
16250.000000	67.671	21.1855
16500.000000	67.328	26.0595
16750.000000	67.099	30.7471
17000.000000	66.950	35.9081
17250.000000	66.806	41.7974
17500.000000	66.860	48.2949
17750.000000	67.282	54.5234
18000.000000	68.056	58.5538
18250.000000	68.737	61.1164
18500.000000	69.286	61.3771
18750.000000	69.691	59.8951
19000.000000	69.626	57.5254
19250.000000	69.099	55.7688
19500.000000	68.464	56.1886
19750.000000	67.970	58.3652
