* Measurement data measured by REW V5.20.4
* Source: Input device not selected, no input selected, R, volume: no control
* Format: 256k Log Swept Sine, 1 sweep at -12,0 dBFS with no timing reference
* Dated: 2023-aug-31 21:26:03
* REW Settings:
*  C-weighting compensation: Off
*  Target level: 75.0 dB
* Note: Stock tips M + stock cable 3.5mm (mic)  Right
* Measurement: KitSound Mini R
* Smoothing: 1/48 octave
* Frequency Step: 1/48 octave
* Start Frequency: 20.300 Hz
*
* Freq(Hz)	SPL(dB)	Phase(degrees)
20.299999	101.636	-2.5930
20.600000	101.612	-2.9435
20.900000	101.582	-3.2828
21.200001	101.553	-3.6201
21.400000	101.539	-3.8493
21.799999	101.519	-4.3214
22.000000	101.511	-4.5641
22.400000	101.496	-5.0563
22.700001	101.485	-5.4222
23.000000	101.472	-5.7771
23.299999	101.458	-6.1179
23.600000	101.443	-6.4460
24.000000	101.421	-6.8703
24.299999	101.404	-7.1859
24.700001	101.381	-7.6097
25.000000	101.363	-7.9305
25.400000	101.341	-8.3578
25.799999	101.319	-8.7776
26.200001	101.298	-9.1869
26.500000	101.283	-9.4889
26.900000	101.262	-9.8885
27.200001	101.243	-10.1865
27.600000	101.215	-10.5778
28.000000	101.185	-10.9549
28.500000	101.148	-11.4046
29.000000	101.115	-11.8504
29.500000	101.086	-12.3209
30.000000	101.057	-12.8209
30.400000	101.034	-13.2230
30.700001	101.016	-13.5138
31.100000	100.990	-13.8809
31.500000	100.966	-14.2301
32.000000	100.938	-14.6615
32.500000	100.911	-15.1002
33.000000	100.884	-15.5373
33.500000	100.856	-15.9581
34.000000	100.828	-16.3647
34.500000	100.801	-16.7724
35.000000	100.772	-17.1880
35.500000	100.740	-17.6008
36.000000	100.705	-17.9956
36.500000	100.672	-18.3715
37.000000	100.642	-18.7421
37.500000	100.613	-19.1200
38.200001	100.572	-19.6591
38.700001	100.541	-20.0378
39.500000	100.489	-20.6209
40.000000	100.458	-20.9777
40.599998	100.420	-21.4055
41.200001	100.382	-21.8336
41.799999	100.343	-22.2587
42.500000	100.297	-22.7424
43.099998	100.263	-23.1461
43.700001	100.231	-23.5521
44.400002	100.192	-24.0317
45.000000	100.156	-24.4276
45.500000	100.126	-24.7407
46.200001	100.088	-25.1792
46.799999	100.055	-25.5672
47.500000	100.013	-25.9916
48.200001	99.972	-26.3658
48.700001	99.944	-26.6363
49.400002	99.903	-27.0616
50.000000	99.862	-27.4520
50.799999	99.806	-27.9624
51.500000	99.761	-28.3898
52.200001	99.717	-28.7927
53.000000	99.669	-29.2278
53.799999	99.618	-29.6679
54.500000	99.570	-30.0548
55.200001	99.521	-30.4284
56.000000	99.467	-30.8442
57.000000	99.399	-31.3512
58.000000	99.332	-31.8569
59.000000	99.264	-32.3618
60.000000	99.197	-32.8376
60.799999	99.145	-33.2120
61.500000	99.099	-33.5420
62.200001	99.054	-33.8737
63.000000	99.001	-34.2518
64.000000	98.934	-34.7122
65.000000	98.868	-35.1644
66.000000	98.803	-35.6051
67.000000	98.738	-36.0238
68.000000	98.674	-36.4461
69.000000	98.610	-36.8614
70.000000	98.547	-37.2640
71.000000	98.482	-37.6639
72.000000	98.417	-38.0511
73.000000	98.355	-38.4448
74.000000	98.292	-38.8242
75.000000	98.230	-39.1820
76.199997	98.158	-39.6220
77.500000	98.081	-40.0912
78.800003	98.006	-40.5480
80.000000	97.934	-40.9514
81.199997	97.864	-41.3244
82.500000	97.791	-41.7646
83.800003	97.715	-42.2026
85.000000	97.639	-42.6197
86.199997	97.560	-42.9517
87.500000	97.488	-43.3035
88.500000	97.427	-43.6309
90.000000	97.326	-44.1005
91.199997	97.264	-44.4202
92.500000	97.189	-44.7715
93.800003	97.108	-45.1073
95.000000	97.043	-45.4611
96.199997	96.976	-45.7698
97.500000	96.899	-46.0771
98.800003	96.818	-46.3942
100.000000	96.746	-46.6819
101.500000	96.661	-47.0643
103.000000	96.577	-47.4128
104.400002	96.499	-47.7266
106.000000	96.403	-48.0795
107.500000	96.318	-48.3862
109.000000	96.243	-48.7294
110.599998	96.162	-49.0839
112.000000	96.090	-49.3788
113.800003	95.997	-49.7288
115.000000	95.941	-49.9576
117.199997	95.830	-50.4188
118.000000	95.789	-50.5639
120.599998	95.669	-50.9856
122.000000	95.590	-51.2633
124.099998	95.477	-51.6081
125.000000	95.429	-51.7599
126.500000	95.352	-52.0127
128.000000	95.279	-52.2769
131.500000	95.099	-52.8212
132.000000	95.072	-52.8947
134.000000	94.964	-53.1846
136.000000	94.862	-53.4773
138.000000	94.771	-53.7394
140.000000	94.664	-54.0179
143.000000	94.514	-54.4264
145.000000	94.422	-54.7234
147.500000	94.305	-54.9846
150.000000	94.185	-55.3060
152.500000	94.070	-55.5752
155.000000	93.965	-55.8700
157.500000	93.861	-56.1481
160.000000	93.758	-56.4320
162.500000	93.657	-56.6937
165.000000	93.556	-56.8896
167.500000	93.453	-57.1237
170.000000	93.354	-57.4009
172.500000	93.258	-57.6236
175.000000	93.174	-57.8620
177.500000	93.077	-58.0657
180.000000	92.974	-58.2311
182.500000	92.881	-58.4539
185.000000	92.789	-58.6309
187.500000	92.700	-58.8119
190.000000	92.610	-58.9987
192.500000	92.513	-59.1850
195.000000	92.419	-59.3753
197.500000	92.326	-59.5213
200.000000	92.233	-59.6318
203.000000	92.125	-59.8033
206.000000	92.018	-60.0241
209.000000	91.915	-60.2363
212.000000	91.808	-60.3497
214.000000	91.735	-60.4394
218.000000	91.599	-60.6725
220.000000	91.528	-60.7693
224.000000	91.387	-60.9816
227.000000	91.288	-61.0842
230.000000	91.188	-61.2163
233.000000	91.090	-61.3245
236.000000	90.993	-61.4683
240.000000	90.861	-61.6145
243.000000	90.766	-61.7169
247.000000	90.633	-61.9373
250.000000	90.539	-62.0147
254.000000	90.419	-62.1008
258.000000	90.299	-62.2298
262.000000	90.176	-62.3541
265.000000	90.085	-62.4200
269.000000	89.968	-62.5437
272.000000	89.883	-62.6422
276.000000	89.767	-62.7486
280.000000	89.653	-62.8152
285.000000	89.514	-62.9170
290.000000	89.377	-63.0308
295.000000	89.242	-63.1087
300.000000	89.117	-63.1686
304.000000	89.005	-63.2241
307.000000	88.925	-63.2803
311.000000	88.825	-63.3415
315.000000	88.724	-63.4341
320.000000	88.596	-63.4956
325.000000	88.479	-63.5294
330.000000	88.361	-63.5634
335.000000	88.241	-63.6356
340.000000	88.119	-63.6641
345.000000	87.999	-63.7386
350.000000	87.884	-63.8295
355.000000	87.771	-63.8070
360.000000	87.657	-63.7929
365.000000	87.541	-63.8141
370.000000	87.432	-63.7936
375.000000	87.321	-63.7977
382.000000	87.170	-63.8047
387.000000	87.067	-63.8294
395.000000	86.902	-63.7975
400.000000	86.794	-63.7959
406.000000	86.674	-63.7969
412.000000	86.551	-63.7941
418.000000	86.433	-63.7704
425.000000	86.300	-63.6986
431.000000	86.188	-63.6931
437.000000	86.080	-63.6488
444.000000	85.950	-63.5945
450.000000	85.842	-63.5617
455.000000	85.758	-63.5299
462.000000	85.635	-63.4591
468.000000	85.532	-63.3950
475.000000	85.412	-63.3280
482.000000	85.288	-63.2622
487.000000	85.202	-63.2374
494.000000	85.077	-63.1642
500.000000	84.978	-63.0930
508.000000	84.847	-63.0309
515.000000	84.724	-62.9824
522.000000	84.607	-62.9318
530.000000	84.469	-62.8918
538.000000	84.326	-62.8860
545.000000	84.189	-62.9111
552.000000	84.039	-62.9136
560.000000	83.838	-62.7094
570.000000	83.602	-61.8841
580.000000	83.490	-61.0458
590.000000	83.374	-60.7458
600.000000	83.221	-60.4042
608.000000	83.105	-59.9192
615.000000	83.046	-59.5484
622.000000	82.990	-59.3547
630.000000	82.904	-59.1677
640.000000	82.790	-58.9738
650.000000	82.668	-58.7137
660.000000	82.543	-58.4318
670.000000	82.425	-58.0718
680.000000	82.296	-57.7165
690.000000	82.188	-57.3806
700.000000	82.067	-57.0290
710.000000	81.949	-56.6364
720.000000	81.834	-56.1877
730.000000	81.723	-55.7071
740.000000	81.599	-55.2911
750.000000	81.482	-54.8110
762.000000	81.355	-54.2293
775.000000	81.223	-53.5839
788.000000	81.078	-52.8664
800.000000	80.955	-52.1776
812.000000	80.829	-51.5653
825.000000	80.707	-50.8351
838.000000	80.588	-50.0180
850.000000	80.493	-49.2911
862.000000	80.392	-48.5827
875.000000	80.287	-47.7539
885.000000	80.213	-47.0897
900.000000	80.096	-46.1452
912.000000	80.021	-45.4021
925.000000	79.940	-44.4934
938.000000	79.867	-43.6466
950.000000	79.798	-42.8284
962.000000	79.722	-42.0313
975.000000	79.648	-41.2201
988.000000	79.576	-40.3954
1000.000000	79.520	-39.6180
1015.000000	79.435	-38.6658
1030.000000	79.355	-37.7913
1044.000000	79.299	-36.9890
1060.000000	79.229	-36.1303
1075.000000	79.173	-35.3648
1090.000000	79.111	-34.6080
1106.000000	79.041	-33.8337
1120.000000	78.969	-33.3398
1138.000000	78.887	-32.5287
1150.000000	78.839	-32.0182
1172.000000	78.727	-31.1440
1180.000000	78.689	-30.8555
1206.000000	78.548	-29.9882
1220.000000	78.470	-29.5159
1241.000000	78.373	-28.7153
1250.000000	78.331	-28.3990
1265.000000	78.252	-27.9284
1280.000000	78.160	-27.3282
1315.000000	77.958	-25.8685
1320.000000	77.925	-25.6475
1340.000000	77.794	-24.7232
1360.000000	77.676	-23.7829
1380.000000	77.578	-22.8051
1400.000000	77.498	-21.6484
1430.000000	77.344	-19.7664
1450.000000	77.259	-18.2916
1475.000000	77.189	-16.4133
1500.000000	77.107	-14.5709
1525.000000	77.076	-12.4270
1550.000000	77.039	-10.1170
1575.000000	77.042	-7.8621
1600.000000	77.085	-5.5588
1625.000000	77.169	-3.1620
1650.000000	77.285	-0.8940
1675.000000	77.451	1.3922
1700.000000	77.656	3.5271
1725.000000	77.880	5.3709
1750.000000	78.138	7.1798
1775.000000	78.417	8.6240
1800.000000	78.714	9.8142
1825.000000	79.024	10.7322
1850.000000	79.319	11.2789
1875.000000	79.615	11.5995
1900.000000	79.904	11.6956
1925.000000	80.168	11.5721
1950.000000	80.409	11.1992
1975.000000	80.625	10.6693
2000.000000	80.808	10.0858
2030.000000	80.990	9.2836
2060.000000	81.134	8.4949
2090.000000	81.235	7.6794
2120.000000	81.304	6.9372
2140.000000	81.325	6.4911
2180.000000	81.351	5.7788
2200.000000	81.342	5.5187
2240.000000	81.316	5.1341
2270.000000	81.288	4.9475
2300.000000	81.249	4.9457
2330.000000	81.211	5.0921
2360.000000	81.163	5.2856
2400.000000	81.117	5.6231
2430.000000	81.072	6.0131
2470.000000	81.005	6.6651
2500.000000	80.959	7.2257
2540.000000	80.913	8.0170
2580.000000	80.873	8.9502
2620.000000	80.845	9.9606
2650.000000	80.825	10.6720
2690.000000	80.793	11.8017
2720.000000	80.790	12.6052
2760.000000	80.793	13.8108
2800.000000	80.799	15.1200
2850.000000	80.839	16.8721
2900.000000	80.901	18.5248
2950.000000	81.029	20.2847
3000.000000	81.186	21.8621
3040.000000	81.332	22.9619
3070.000000	81.449	23.6772
3110.000000	81.596	24.5119
3150.000000	81.740	25.2675
3200.000000	81.906	26.1412
3250.000000	82.079	26.9764
3300.000000	82.248	27.8372
3350.000000	82.422	28.6119
3400.000000	82.601	29.3085
3450.000000	82.783	29.9953
3500.000000	82.967	30.6008
3550.000000	83.147	31.1192
3600.000000	83.328	31.5587
3650.000000	83.504	31.9738
3700.000000	83.680	32.3040
3750.000000	83.855	32.5421
3820.000000	84.093	32.7509
3870.000000	84.265	32.8366
3950.000000	84.522	32.9320
4000.000000	84.665	32.9266
4060.000000	84.832	32.8477
4120.000000	84.988	32.7794
4180.000000	85.134	32.7022
4250.000000	85.290	32.6375
4310.000000	85.417	32.5833
4370.000000	85.541	32.5786
4440.000000	85.688	32.6222
4500.000000	85.811	32.6984
4550.000000	85.909	32.7887
4620.000000	86.046	32.9450
4680.000000	86.164	33.1331
4750.000000	86.308	33.3765
4820.000000	86.457	33.6557
4870.000000	86.568	33.8633
4940.000000	86.716	34.2369
5000.000000	86.851	34.5791
5080.000000	87.040	35.0635
5150.000000	87.219	35.5730
5220.000000	87.420	36.1425
5300.000000	87.684	36.8119
5380.000000	87.987	37.4231
5450.000000	88.277	37.8923
5520.000000	88.593	38.3170
5600.000000	89.005	38.6621
5700.000000	89.609	38.6883
5800.000000	90.298	37.9510
5900.000000	91.045	36.2290
6000.000000	91.814	33.3366
6080.000000	92.408	30.0240
6150.000000	92.881	26.3394
6220.000000	93.267	21.9234
6300.000000	93.522	16.2777
6400.000000	93.683	9.8937
6500.000000	93.738	2.5662
6600.000000	93.560	-5.2412
6700.000000	92.979	-12.2011
6800.000000	92.243	-17.1439
6900.000000	91.466	-20.4777
7000.000000	90.696	-22.5495
7100.000000	90.003	-23.6190
7200.000000	89.423	-24.0534
7300.000000	88.941	-24.1520
7400.000000	88.547	-24.0830
7500.000000	88.231	-23.8587
7620.000000	87.972	-23.5082
7750.000000	87.855	-23.3157
7880.000000	87.899	-23.6378
8000.000000	88.057	-24.6614
8120.000000	88.280	-26.6607
8250.000000	88.500	-29.9816
8380.000000	88.861	-33.5129
8500.000000	89.341	-41.1564
8620.000000	89.148	-51.2040
8750.000000	88.435	-61.3570
8850.000000	87.596	-68.0777
9000.000000	86.010	-75.5096
9120.000000	84.615	-79.1132
9250.000000	83.093	-80.9931
9380.000000	81.613	-81.1350
9500.000000	80.338	-79.9724
9620.000000	79.157	-77.9743
9750.000000	77.978	-75.1091
9880.000000	76.902	-71.6408
10000.000000	75.965	-68.0606
10150.000000	74.898	-63.2090
10300.000000	73.953	-58.0105
10440.000000	73.175	-53.1323
10600.000000	72.371	-47.1700
10750.000000	71.661	-41.3405
10900.000000	71.059	-35.3804
11060.000000	70.486	-29.0525
11200.000000	70.052	-23.3107
11380.000000	69.615	-15.9535
11500.000000	69.358	-11.0309
11720.000000	68.990	-2.2143
11800.000000	68.879	1.0354
12060.000000	68.661	11.2640
12200.000000	68.665	16.7812
12410.000000	68.803	25.1161
12500.000000	68.893	28.5866
12650.000000	69.139	34.0759
12800.000000	69.455	39.1417
13150.000000	70.615	49.8432
13200.000000	70.839	51.1274
13400.000000	71.875	55.5741
13600.000000	73.192	58.1855
13800.000000	74.908	57.8628
14000.000000	76.802	52.1442
14300.000000	78.581	30.3366
14500.000000	78.001	12.1826
14750.000000	75.613	-1.3258
15000.000000	72.925	-3.5726
15250.000000	70.758	1.1612
15500.000000	69.404	9.8677
15750.000000	69.077	19.4743
16000.000000	69.312	24.6282
16250.000000	69.405	27.2176
16500.000000	69.186	29.1865
16750.000000	68.870	32.2845
17000.000000	68.659	36.2991
17250.000000	68.537	40.6580
17500.000000	68.626	45.1790
17750.000000	68.940	49.4219
18000.000000	69.194	52.2866
18250.000000	69.571	58.9972
18500.000000	70.944	60.9701
18750.000000	71.620	51.6847
19000.000000	70.525	47.0767
19250.000000	69.937	46.5840
19500.000000	69.306	45.3759
19750.000000	68.308	46.5734
