* Measurement data measured by REW V5.20.4
* Source: Input device not selected, no input selected, L, volume: no control
* Format: 256k Log Swept Sine, 1 sweep at 0,0 dBFS with no timing reference
* Dated: 2023-nov-17 20:43:18
* REW Settings:
*  C-weighting compensation: Off
*  Target level: 75.0 dB
* Note: Stock tips M + stock cable 3.5mm  black o-ring nozzle Left
* Measurement: Simgot EA1000 (black) L
* Smoothing: 1/48 octave
* Frequency Step: 1/48 octave
* Start Frequency: 20.300 Hz
*
* Freq(Hz)	SPL(dB)	Phase(degrees)
20.299999	84.107	24.6241
20.600000	84.108	24.0383
20.900000	84.105	23.4334
21.200001	84.102	22.8460
21.400000	84.106	22.4869
21.799999	84.127	21.8627
22.000000	84.143	21.5930
22.400000	84.182	21.0924
22.700001	84.208	20.6955
23.000000	84.218	20.2444
23.299999	84.206	19.7490
23.600000	84.170	19.2407
24.000000	84.101	18.5920
24.299999	84.054	18.1355
24.700001	84.019	17.5219
25.000000	84.020	17.0191
25.400000	84.047	16.2985
25.799999	84.082	15.6392
26.200001	84.114	15.1852
26.500000	84.136	14.9821
26.900000	84.162	14.7555
27.200001	84.171	14.4646
27.600000	84.149	13.7762
28.000000	84.065	12.8116
28.500000	83.893	11.6718
29.000000	83.758	11.1028
29.500000	83.776	10.9877
30.000000	83.933	10.7119
30.400000	84.072	10.1766
30.700001	84.140	9.6828
31.100000	84.164	9.1232
31.500000	84.137	8.7991
32.000000	84.093	8.6014
32.500000	84.074	8.2589
33.000000	84.065	7.6045
33.500000	84.044	6.8676
34.000000	84.019	6.3253
34.500000	84.012	5.9638
35.000000	84.016	5.5914
35.500000	84.011	5.1126
36.000000	83.990	4.6021
36.500000	83.964	4.1385
37.000000	83.944	3.7016
37.500000	83.926	3.2310
38.200001	83.891	2.4982
38.700001	83.868	1.9710
39.500000	83.865	1.2584
40.000000	83.882	0.9766
40.599998	83.893	0.8279
41.200001	83.860	0.7511
41.799999	83.773	0.4908
42.500000	83.651	-0.3491
43.099998	83.598	-1.5156
43.700001	83.621	-2.6329
44.400002	83.722	-3.1181
45.000000	83.830	-2.6991
45.500000	83.886	-2.1584
46.200001	83.846	-1.7419
46.799999	83.712	-1.8932
47.500000	83.569	-2.6468
48.200001	83.513	-3.9637
48.700001	83.490	-4.9191
49.400002	83.443	-5.5482
50.000000	83.446	-5.4148
50.799999	83.552	-5.4517
51.500000	83.631	-6.1066
52.200001	83.634	-6.5866
53.000000	83.581	-6.5424
53.799999	83.478	-6.5820
54.500000	83.366	-7.0405
55.200001	83.308	-7.7885
56.000000	83.336	-8.6361
57.000000	83.369	-9.0081
58.000000	83.267	-8.8745
59.000000	83.087	-9.1582
60.000000	82.985	-9.8792
60.799999	82.957	-10.4072
61.500000	82.927	-10.6981
62.200001	82.888	-10.9374
63.000000	82.850	-11.3284
64.000000	82.809	-11.8476
65.000000	82.761	-12.2264
66.000000	82.714	-12.7246
67.000000	82.706	-13.2174
68.000000	82.713	-13.3611
69.000000	82.644	-13.2319
70.000000	82.535	-13.4774
71.000000	82.478	-14.2557
72.000000	82.486	-14.7929
73.000000	82.470	-14.8360
74.000000	82.394	-14.8255
75.000000	82.336	-15.1581
76.199997	82.300	-15.7068
77.500000	82.216	-15.9630
78.800003	82.146	-16.3611
80.000000	82.141	-16.7876
81.199997	82.106	-16.8925
82.500000	82.027	-17.1692
83.800003	81.968	-17.5259
85.000000	81.932	-17.6866
86.199997	81.874	-17.9418
87.500000	81.813	-18.2969
88.500000	81.760	-18.4620
90.000000	81.663	-18.6026
91.199997	81.629	-18.8853
92.500000	81.585	-19.2141
93.800003	81.532	-19.4108
95.000000	81.481	-19.6463
96.199997	81.429	-19.8047
97.500000	81.370	-19.9816
98.800003	81.310	-20.2184
100.000000	81.258	-20.3826
101.500000	81.195	-20.5484
103.000000	81.134	-20.7635
104.400002	81.079	-20.9260
106.000000	81.012	-21.1229
107.500000	80.948	-21.3013
109.000000	80.897	-21.4469
110.599998	80.842	-21.5974
112.000000	80.792	-21.7503
113.800003	80.724	-21.9562
115.000000	80.681	-22.0488
117.199997	80.606	-22.2162
118.000000	80.575	-22.2938
120.599998	80.475	-22.5642
122.000000	80.426	-22.5836
124.099998	80.349	-22.6969
125.000000	80.317	-22.7446
126.500000	80.262	-22.8225
128.000000	80.205	-22.9294
131.500000	80.072	-23.1081
132.000000	80.055	-23.1371
134.000000	79.982	-23.2271
136.000000	79.906	-23.2839
138.000000	79.832	-23.3234
140.000000	79.754	-23.4064
143.000000	79.639	-23.4628
145.000000	79.559	-23.5160
147.500000	79.474	-23.5850
150.000000	79.380	-23.6425
152.500000	79.289	-23.6271
155.000000	79.205	-23.6586
157.500000	79.123	-23.6079
160.000000	79.034	-23.5801
162.500000	78.941	-23.4790
165.000000	78.835	-23.3345
167.500000	78.736	-23.0365
170.000000	78.644	-22.5018
172.500000	78.579	-21.8214
175.000000	78.564	-21.1004
177.500000	78.596	-20.4833
180.000000	78.660	-20.2666
182.500000	78.705	-20.3460
185.000000	78.719	-20.6137
187.500000	78.703	-20.9993
190.000000	78.665	-21.2719
192.500000	78.615	-21.4346
195.000000	78.556	-21.5252
197.500000	78.493	-21.5868
200.000000	78.431	-21.6147
203.000000	78.370	-21.5722
206.000000	78.295	-21.5640
209.000000	78.234	-21.5324
212.000000	78.170	-21.4662
214.000000	78.127	-21.4091
218.000000	78.039	-21.2832
220.000000	77.999	-21.2380
224.000000	77.922	-21.0933
227.000000	77.864	-20.9582
230.000000	77.804	-20.8313
233.000000	77.748	-20.7258
236.000000	77.694	-20.6150
240.000000	77.624	-20.4001
243.000000	77.571	-20.2542
247.000000	77.502	-20.0642
250.000000	77.452	-19.9106
254.000000	77.384	-19.7144
258.000000	77.320	-19.5145
262.000000	77.258	-19.2929
265.000000	77.213	-19.1082
269.000000	77.150	-18.8565
272.000000	77.105	-18.6823
276.000000	77.054	-18.4449
280.000000	77.006	-18.2204
285.000000	76.938	-17.9006
290.000000	76.871	-17.6037
295.000000	76.810	-17.2711
300.000000	76.755	-16.9309
304.000000	76.712	-16.6684
307.000000	76.682	-16.4706
311.000000	76.645	-16.1882
315.000000	76.609	-15.9220
320.000000	76.567	-15.6211
325.000000	76.527	-15.3350
330.000000	76.483	-15.0419
335.000000	76.439	-14.7665
340.000000	76.405	-14.4978
345.000000	76.363	-14.2234
350.000000	76.322	-13.9379
355.000000	76.280	-13.6400
360.000000	76.240	-13.3561
365.000000	76.202	-13.0792
370.000000	76.166	-12.7820
375.000000	76.128	-12.4749
382.000000	76.078	-12.0674
387.000000	76.045	-11.7705
395.000000	75.997	-11.2887
400.000000	75.968	-10.9510
406.000000	75.934	-10.6126
412.000000	75.902	-10.2577
418.000000	75.870	-9.8885
425.000000	75.836	-9.4519
431.000000	75.809	-9.1058
437.000000	75.783	-8.7412
444.000000	75.757	-8.2992
450.000000	75.736	-7.9312
455.000000	75.722	-7.6274
462.000000	75.701	-7.2158
468.000000	75.681	-6.8635
475.000000	75.663	-6.4254
482.000000	75.643	-5.9873
487.000000	75.628	-5.6839
494.000000	75.608	-5.2599
500.000000	75.589	-4.9056
508.000000	75.568	-4.4220
515.000000	75.552	-3.9966
522.000000	75.536	-3.5662
530.000000	75.520	-3.0670
538.000000	75.505	-2.5963
545.000000	75.494	-2.1806
552.000000	75.485	-1.7657
560.000000	75.474	-1.2815
570.000000	75.463	-0.6882
580.000000	75.454	-0.0999
590.000000	75.443	0.4709
600.000000	75.437	1.0744
608.000000	75.441	1.5429
615.000000	75.446	1.9556
622.000000	75.451	2.3592
630.000000	75.463	2.8120
640.000000	75.477	3.3944
650.000000	75.489	3.9983
660.000000	75.504	4.5844
670.000000	75.521	5.1711
680.000000	75.539	5.7735
690.000000	75.553	6.3719
700.000000	75.570	6.9595
710.000000	75.589	7.5695
720.000000	75.609	8.2016
730.000000	75.633	8.8187
740.000000	75.656	9.4292
750.000000	75.680	10.0497
762.000000	75.719	10.8214
775.000000	75.762	11.6476
788.000000	75.804	12.4635
800.000000	75.853	13.2061
812.000000	75.911	13.9315
825.000000	75.986	14.6086
838.000000	76.064	15.0009
850.000000	76.058	14.9377
862.000000	75.899	15.6755
875.000000	75.889	17.8299
885.000000	75.993	19.0363
900.000000	76.162	20.2058
912.000000	76.274	20.8203
925.000000	76.328	21.3912
938.000000	76.370	22.4745
950.000000	76.460	23.5411
962.000000	76.561	24.4531
975.000000	76.665	25.3439
988.000000	76.762	26.1737
1000.000000	76.857	26.9189
1015.000000	76.981	27.8222
1030.000000	77.108	28.6467
1044.000000	77.233	29.3508
1060.000000	77.378	30.1054
1075.000000	77.518	30.7801
1090.000000	77.652	31.3700
1106.000000	77.787	31.9169
1120.000000	77.908	32.3789
1138.000000	78.067	32.8623
1150.000000	78.168	33.1275
1172.000000	78.354	33.5270
1180.000000	78.418	33.6724
1206.000000	78.626	33.9982
1220.000000	78.744	34.1133
1241.000000	78.921	34.2568
1250.000000	78.994	34.3137
1265.000000	79.112	34.3781
1280.000000	79.227	34.3917
1315.000000	79.479	34.4257
1320.000000	79.512	34.4323
1340.000000	79.644	34.4551
1360.000000	79.779	34.4347
1380.000000	79.927	34.4226
1400.000000	80.077	34.4128
1430.000000	80.292	34.4407
1450.000000	80.436	34.4329
1475.000000	80.611	34.4322
1500.000000	80.783	34.4811
1525.000000	80.946	34.5341
1550.000000	81.115	34.5584
1575.000000	81.277	34.5873
1600.000000	81.438	34.6619
1625.000000	81.596	34.7253
1650.000000	81.762	34.7655
1675.000000	81.933	34.7873
1700.000000	82.101	34.8101
1725.000000	82.266	34.8637
1750.000000	82.430	34.8728
1775.000000	82.599	34.8471
1800.000000	82.772	34.8355
1825.000000	82.945	34.7821
1850.000000	83.121	34.7061
1875.000000	83.301	34.6108
1900.000000	83.483	34.4782
1925.000000	83.672	34.3211
1950.000000	83.872	34.1277
1975.000000	84.077	33.8903
2000.000000	84.286	33.5959
2030.000000	84.540	33.1863
2060.000000	84.798	32.6928
2090.000000	85.055	32.0877
2120.000000	85.311	31.3919
2140.000000	85.480	30.8764
2180.000000	85.819	29.6195
2200.000000	85.978	28.9095
2240.000000	86.274	27.4145
2270.000000	86.476	26.1647
2300.000000	86.671	24.8124
2330.000000	86.847	23.4172
2360.000000	87.006	21.9946
2400.000000	87.190	20.0490
2430.000000	87.311	18.5198
2470.000000	87.427	16.4809
2500.000000	87.490	14.9832
2540.000000	87.550	12.9360
2580.000000	87.586	10.9351
2620.000000	87.598	8.9640
2650.000000	87.589	7.5225
2690.000000	87.553	5.6973
2720.000000	87.515	4.3730
2760.000000	87.444	2.6590
2800.000000	87.351	1.1218
2850.000000	87.210	-0.6648
2900.000000	87.061	-2.2550
2950.000000	86.897	-3.6681
3000.000000	86.722	-4.8698
3040.000000	86.579	-5.7315
3070.000000	86.470	-6.2860
3110.000000	86.334	-6.9395
3150.000000	86.195	-7.5517
3200.000000	86.015	-8.0774
3250.000000	85.837	-8.5356
3300.000000	85.672	-8.8609
3350.000000	85.514	-9.0777
3400.000000	85.357	-9.2028
3450.000000	85.206	-9.2180
3500.000000	85.066	-9.1825
3550.000000	84.931	-9.0398
3600.000000	84.804	-8.8215
3650.000000	84.695	-8.5731
3700.000000	84.595	-8.2671
3750.000000	84.504	-7.9076
3820.000000	84.397	-7.4284
3870.000000	84.339	-7.1185
3950.000000	84.258	-6.6414
4000.000000	84.207	-6.3293
4060.000000	84.149	-5.9103
4120.000000	84.103	-5.4510
4180.000000	84.068	-4.9422
4250.000000	84.044	-4.3218
4310.000000	84.044	-3.7931
4370.000000	84.071	-3.3113
4440.000000	84.119	-2.8346
4500.000000	84.164	-2.4662
4550.000000	84.212	-2.2551
4620.000000	84.285	-2.0238
4680.000000	84.350	-1.9117
4750.000000	84.432	-1.8804
4820.000000	84.515	-1.9587
4870.000000	84.573	-2.0994
4940.000000	84.644	-2.3874
5000.000000	84.698	-2.7220
5080.000000	84.763	-3.3109
5150.000000	84.809	-3.9263
5220.000000	84.845	-4.6531
5300.000000	84.866	-5.5945
5380.000000	84.861	-6.6290
5450.000000	84.836	-7.5970
5520.000000	84.781	-8.6731
5600.000000	84.665	-9.8022
5700.000000	84.481	-11.2474
5800.000000	84.259	-12.5558
5900.000000	83.996	-13.7006
6000.000000	83.691	-14.6084
6080.000000	83.412	-15.0935
6150.000000	83.140	-15.1037
6220.000000	82.924	-14.4957
6300.000000	82.823	-14.3281
6400.000000	82.565	-14.9735
6500.000000	82.230	-14.9773
6600.000000	81.910	-14.5771
6700.000000	81.605	-13.8910
6800.000000	81.318	-12.9482
6900.000000	81.035	-11.7691
7000.000000	80.756	-10.3814
7100.000000	80.515	-8.8162
7200.000000	80.326	-7.1673
7300.000000	80.183	-5.5372
7400.000000	80.073	-3.9013
7500.000000	79.996	-2.2266
7620.000000	79.963	-0.2065
7750.000000	80.026	1.9675
7880.000000	80.198	4.0187
8000.000000	80.436	5.7176
8120.000000	80.760	7.1098
8250.000000	81.214	8.1415
8380.000000	81.766	8.4606
8500.000000	82.355	7.8423
8620.000000	83.012	6.0598
8750.000000	83.780	2.3912
8850.000000	84.319	-1.8801
9000.000000	84.844	-10.6734
9120.000000	84.874	-19.0668
9250.000000	84.443	-28.0511
9380.000000	83.601	-35.5308
9500.000000	82.592	-40.4129
9620.000000	81.488	-43.3282
9750.000000	80.284	-44.6169
9880.000000	79.128	-44.3735
10000.000000	78.135	-43.1281
10150.000000	77.012	-40.5555
10300.000000	76.015	-37.1285
10440.000000	75.194	-33.4052
10600.000000	74.370	-28.6503
10750.000000	73.706	-23.8550
10900.000000	73.137	-18.8145
11060.000000	72.628	-13.2547
11200.000000	72.252	-8.2530
11380.000000	71.886	-1.7951
11500.000000	71.709	2.5406
11720.000000	71.518	10.4623
11800.000000	71.492	13.3138
12060.000000	71.558	22.3526
12200.000000	71.701	27.0597
12410.000000	72.053	33.7190
12500.000000	72.253	36.3718
12650.000000	72.642	40.4594
12800.000000	73.075	44.2920
13150.000000	74.829	54.1232
13200.000000	75.235	55.0431
13400.000000	77.051	55.7879
13600.000000	79.005	51.0907
13800.000000	80.783	39.3147
14000.000000	81.540	20.6900
14300.000000	79.965	-3.8031
14500.000000	78.116	-11.4256
14750.000000	75.990	-13.8609
15000.000000	74.342	-12.1725
15250.000000	73.142	-8.5692
15500.000000	72.357	-4.1433
15750.000000	71.930	0.4845
16000.000000	71.772	4.8550
16250.000000	71.866	8.6363
16500.000000	72.175	11.0322
16750.000000	72.509	11.7160
17000.000000	72.882	11.2011
17250.000000	73.256	8.5077
17500.000000	73.489	3.3340
17750.000000	73.282	-3.3508
18000.000000	72.515	-9.6702
18250.000000	71.305	-13.8061
18500.000000	69.842	-15.2071
18750.000000	68.259	-14.0282
19000.000000	66.627	-10.1313
19250.000000	65.100	-2.6539
19500.000000	64.276	7.7959
19750.000000	64.471	15.7559
