* Measurement data measured by REW V5.20.9
* Source: Microphone (USB Audio Device), MICROPHONE (Master Volume), R, volume: 0.250
* Format: 512k Log Swept Sine, 1 sweep at -12.0 dBFS with no timing reference
* Dated: Oct 30, 2022 1:19:30 PM
* REW Settings:
*  C-weighting compensation: Off
*  Target level: 75.0 dB
* Note: ; 
* Measurement: apexti R
* Smoothing: 1/12 octave
* Frequency Step: 1/48 octave
* Start Frequency: 20.000 Hz
*
* Freq(Hz)	SPL(dB)	Phase(degrees)
20.000000	122.474	19.6753
20.299999	122.464	18.7791
20.600000	122.445	17.9373
20.900000	122.421	17.1765
21.200001	122.395	16.5170
21.400000	122.380	16.1315
21.799999	122.363	15.4564
22.000000	122.362	15.1423
22.400000	122.371	14.5042
22.700001	122.382	13.9914
23.000000	122.391	13.4558
23.299999	122.393	12.9327
23.600000	122.392	12.4531
24.000000	122.393	11.9025
24.299999	122.404	11.5305
24.700001	122.435	11.0122
25.000000	122.466	10.5522
25.400000	122.506	9.8172
25.799999	122.532	8.9916
26.200001	122.542	8.1649
26.500000	122.543	7.5823
26.900000	122.544	6.8633
27.200001	122.546	6.3544
27.600000	122.554	5.6981
28.000000	122.565	5.0593
28.500000	122.586	4.2666
29.000000	122.608	3.4283
29.500000	122.610	2.5627
30.000000	122.582	1.8950
30.400000	122.562	1.6754
30.700001	122.574	1.6815
31.100000	122.651	1.6678
31.500000	122.784	1.3157
32.000000	122.939	-0.0414
32.500000	122.955	-2.1346
33.000000	122.777	-3.9172
33.500000	122.488	-4.4570
34.000000	122.265	-3.7274
34.500000	122.234	-2.6780
35.000000	122.351	-2.3083
35.500000	122.475	-2.9564
36.000000	122.504	-4.1880
36.500000	122.426	-5.3315
37.000000	122.294	-5.8922
37.500000	122.186	-5.7870
38.200001	122.194	-5.1115
38.700001	122.319	-4.8899
39.500000	122.562	-5.7428
40.000000	122.652	-6.8236
40.599998	122.673	-8.1559
41.200001	122.635	-9.1648
41.799999	122.583	-9.8181
42.500000	122.538	-10.3282
43.099998	122.512	-10.7196
43.700001	122.487	-11.1281
44.400002	122.454	-11.6055
45.000000	122.429	-12.0157
45.500000	122.413	-12.4026
46.200001	122.391	-13.0670
46.799999	122.363	-13.7197
47.500000	122.318	-14.4659
48.200001	122.277	-15.1350
48.700001	122.257	-15.5858
49.400002	122.244	-16.2323
50.000000	122.240	-16.8151
50.799999	122.234	-17.5885
51.500000	122.227	-18.2061
52.200001	122.217	-18.7229
53.000000	122.209	-19.1465
53.799999	122.219	-19.4429
54.500000	122.244	-19.7319
55.200001	122.271	-20.1411
56.000000	122.286	-20.7710
57.000000	122.263	-21.7495
58.000000	122.182	-22.7448
59.000000	122.069	-23.5092
60.000000	121.975	-24.0514
60.799999	121.928	-24.4473
61.500000	121.903	-24.8192
62.200001	121.886	-25.2021
63.000000	121.876	-25.6215
64.000000	121.876	-26.1476
65.000000	121.878	-26.7631
66.000000	121.859	-27.5054
67.000000	121.796	-28.2544
68.000000	121.705	-28.8279
69.000000	121.623	-29.2794
70.000000	121.558	-29.7549
71.000000	121.507	-30.2926
72.000000	121.464	-30.8461
73.000000	121.435	-31.3797
74.000000	121.419	-31.9291
75.000000	121.403	-32.5176
76.199997	121.371	-33.2403
77.500000	121.312	-33.9617
78.800003	121.242	-34.5806
80.000000	121.179	-35.1283
81.199997	121.115	-35.6765
82.500000	121.052	-36.2386
83.800003	120.999	-36.7730
85.000000	120.962	-37.2834
86.199997	120.929	-37.8356
87.500000	120.894	-38.4647
88.500000	120.867	-38.9762
90.000000	120.825	-39.7656
91.199997	120.786	-40.3830
92.500000	120.739	-40.9971
93.800003	120.687	-41.5369
95.000000	120.634	-41.9868
96.199997	120.577	-42.4091
97.500000	120.512	-42.8564
98.800003	120.450	-43.3014
100.000000	120.402	-43.7074
101.500000	120.360	-44.2291
103.000000	120.331	-44.7706
104.400002	120.307	-45.2667
106.000000	120.272	-45.8026
107.500000	120.228	-46.3008
109.000000	120.170	-46.8050
110.599998	120.099	-47.3584
112.000000	120.031	-47.8505
113.800003	119.939	-48.4343
115.000000	119.881	-48.7725
117.199997	119.794	-49.3776
118.000000	119.767	-49.6194
120.599998	119.680	-50.5043
122.000000	119.631	-50.9747
124.099998	119.567	-51.5885
125.000000	119.544	-51.8416
126.500000	119.505	-52.2916
128.000000	119.455	-52.7700
131.500000	119.296	-53.8342
132.000000	119.274	-53.9870
134.000000	119.199	-54.6394
136.000000	119.138	-55.3577
138.000000	119.076	-56.0562
140.000000	119.007	-56.6585
143.000000	118.925	-57.5552
145.000000	118.885	-58.2457
147.500000	118.833	-58.9938
150.000000	118.780	-59.4066
152.500000	118.740	-59.7230
155.000000	118.700	-60.2597
157.500000	118.649	-60.9177
160.000000	118.595	-61.4766
162.500000	118.534	-61.8812
165.000000	118.459	-62.2255
167.500000	118.378	-62.6719
170.000000	118.303	-63.2886
172.500000	118.240	-64.0106
175.000000	118.187	-64.7478
177.500000	118.139	-65.4785
180.000000	118.089	-66.1790
182.500000	118.028	-66.7684
185.000000	117.955	-67.2438
187.500000	117.871	-67.6893
190.000000	117.785	-68.1605
192.500000	117.698	-68.6685
195.000000	117.608	-69.2115
197.500000	117.521	-69.7970
200.000000	117.446	-70.4047
203.000000	117.375	-71.0785
206.000000	117.317	-71.6269
209.000000	117.253	-72.0751
212.000000	117.178	-72.4604
214.000000	117.124	-72.7034
218.000000	117.015	-73.2365
220.000000	116.964	-73.5557
224.000000	116.876	-74.2578
227.000000	116.817	-74.7511
230.000000	116.762	-75.1764
233.000000	116.718	-75.5474
236.000000	116.694	-75.9190
240.000000	116.663	-76.5699
243.000000	116.619	-77.1574
247.000000	116.559	-77.9438
250.000000	116.526	-78.5967
254.000000	116.449	-79.5720
258.000000	116.300	-80.3911
262.000000	116.147	-80.9594
265.000000	116.073	-81.2511
269.000000	116.009	-81.5127
272.000000	115.963	-81.6852
276.000000	115.908	-81.9431
280.000000	115.868	-82.2174
285.000000	115.793	-82.5734
290.000000	115.653	-83.0828
295.000000	115.486	-83.8214
300.000000	115.357	-84.5859
304.000000	115.296	-85.0582
307.000000	115.265	-85.2875
311.000000	115.232	-85.4486
315.000000	115.203	-85.5480
320.000000	115.165	-85.7358
325.000000	115.117	-86.0227
330.000000	115.063	-86.3898
335.000000	115.010	-86.7906
340.000000	114.959	-87.1771
345.000000	114.908	-87.5620
350.000000	114.857	-87.9511
355.000000	114.812	-88.3242
360.000000	114.777	-88.6561
365.000000	114.751	-88.9265
370.000000	114.731	-89.1441
375.000000	114.713	-89.3552
382.000000	114.684	-89.7051
387.000000	114.659	-90.0080
395.000000	114.616	-90.5739
400.000000	114.591	-90.9384
406.000000	114.563	-91.3231
412.000000	114.540	-91.6152
418.000000	114.522	-91.8233
425.000000	114.505	-92.0051
431.000000	114.487	-92.1354
437.000000	114.461	-92.2550
444.000000	114.424	-92.4344
450.000000	114.397	-92.6564
455.000000	114.381	-92.8846
462.000000	114.369	-93.2446
468.000000	114.362	-93.5579
475.000000	114.355	-93.8810
482.000000	114.350	-94.1342
487.000000	114.347	-94.2776
494.000000	114.347	-94.4410
500.000000	114.350	-94.5635
508.000000	114.362	-94.7517
515.000000	114.377	-94.9709
522.000000	114.393	-95.2177
530.000000	114.415	-95.4802
538.000000	114.443	-95.7155
545.000000	114.469	-95.9185
552.000000	114.494	-96.1123
560.000000	114.523	-96.2958
570.000000	114.559	-96.4594
580.000000	114.592	-96.5958
590.000000	114.626	-96.7559
600.000000	114.671	-96.9431
608.000000	114.717	-97.0964
615.000000	114.765	-97.2319
622.000000	114.819	-97.3782
630.000000	114.886	-97.5743
640.000000	114.973	-97.8613
650.000000	115.060	-98.1337
660.000000	115.150	-98.3317
670.000000	115.242	-98.4563
680.000000	115.336	-98.5492
690.000000	115.435	-98.6646
700.000000	115.539	-98.8229
710.000000	115.645	-99.0050
720.000000	115.755	-99.1996
730.000000	115.874	-99.4170
740.000000	116.001	-99.6605
750.000000	116.131	-99.9180
762.000000	116.280	-100.2257
775.000000	116.433	-100.5283
788.000000	116.587	-100.8077
800.000000	116.742	-101.0894
812.000000	116.912	-101.4465
825.000000	117.103	-101.9927
838.000000	117.293	-102.7235
850.000000	117.464	-103.5074
862.000000	117.630	-104.3157
875.000000	117.800	-105.1284
885.000000	117.921	-105.6741
900.000000	118.082	-106.3739
912.000000	118.202	-106.8701
925.000000	118.338	-107.3895
938.000000	118.490	-107.9457
950.000000	118.650	-108.5399
962.000000	118.824	-109.2299
975.000000	119.018	-110.0692
988.000000	119.212	-110.9589
1000.000000	119.386	-111.7739
1015.000000	119.593	-112.7291
1030.000000	119.788	-113.6086
1044.000000	119.959	-114.4185
1060.000000	120.148	-115.4293
1075.000000	120.326	-116.5269
1090.000000	120.513	-117.7806
1106.000000	120.720	-119.2367
1120.000000	120.904	-120.5588
1138.000000	121.131	-122.2856
1150.000000	121.273	-123.4435
1172.000000	121.503	-125.5594
1180.000000	121.577	-126.3221
1206.000000	121.791	-128.7686
1220.000000	121.895	-130.0771
1241.000000	122.044	-132.0647
1250.000000	122.106	-132.9335
1265.000000	122.207	-134.4059
1280.000000	122.302	-135.8975
1315.000000	122.496	-139.3010
1320.000000	122.520	-139.7651
1340.000000	122.602	-141.5587
1360.000000	122.669	-143.2777
1380.000000	122.726	-144.9635
1400.000000	122.779	-146.6421
1430.000000	122.862	-149.1268
1450.000000	122.920	-150.7310
1475.000000	122.996	-152.6673
1500.000000	123.073	-154.5485
1525.000000	123.149	-156.3952
1550.000000	123.224	-158.1979
1575.000000	123.299	-159.9410
1600.000000	123.374	-161.6312
1625.000000	123.448	-163.2928
1650.000000	123.521	-164.9402
1675.000000	123.594	-166.5667
1700.000000	123.666	-168.1599
1725.000000	123.739	-169.7235
1750.000000	123.812	-171.2831
1775.000000	123.888	-172.8604
1800.000000	123.963	-174.4572
1825.000000	124.037	-176.0591
1850.000000	124.105	-177.6487
1875.000000	124.166	-179.2223
1900.000000	124.219	179.2097
1925.000000	124.266	177.6393
1950.000000	124.310	176.0631
1975.000000	124.355	174.4717
2000.000000	124.400	172.8453
2030.000000	124.449	170.8348
2060.000000	124.482	168.7955
2090.000000	124.495	166.7907
2120.000000	124.490	164.8304
2140.000000	124.479	163.5231
2180.000000	124.447	160.8600
2200.000000	124.434	159.5049
2240.000000	124.414	156.7781
2270.000000	124.396	154.7629
2300.000000	124.374	152.8029
2330.000000	124.351	150.8982
2360.000000	124.330	149.0363
2400.000000	124.313	146.5720
2430.000000	124.309	144.7194
2470.000000	124.309	142.2745
2500.000000	124.301	140.4670
2540.000000	124.270	138.0895
2580.000000	124.215	135.7681
2620.000000	124.145	133.5413
2650.000000	124.088	131.9739
2690.000000	124.012	130.0615
2720.000000	123.957	128.7559
2760.000000	123.897	127.1376
2800.000000	123.860	125.5665
2850.000000	123.855	123.5275
2900.000000	123.884	121.3265
2950.000000	123.927	118.9338
3000.000000	123.956	116.3203
3040.000000	123.957	114.0688
3070.000000	123.939	112.3063
3110.000000	123.886	109.9009
3150.000000	123.796	107.4882
3200.000000	123.630	104.5629
3250.000000	123.409	101.8668
3300.000000	123.145	99.5255
3350.000000	122.858	97.6219
3400.000000	122.569	96.1658
3450.000000	122.298	95.1079
3500.000000	122.059	94.3699
3550.000000	121.861	93.8612
3600.000000	121.709	93.4996
3650.000000	121.607	93.2131
3700.000000	121.559	92.9300
3750.000000	121.565	92.5682
3820.000000	121.660	91.7831
3870.000000	121.782	90.9574
3950.000000	122.047	89.1195
4000.000000	122.243	87.6320
4060.000000	122.498	85.4872
4120.000000	122.762	82.9377
4180.000000	123.020	79.9673
4250.000000	123.292	75.9282
4310.000000	123.483	71.9456
4370.000000	123.616	67.5112
4440.000000	123.676	61.9175
4500.000000	123.634	56.9654
4550.000000	123.527	52.8790
4620.000000	123.271	47.4233
4680.000000	122.962	43.1276
4750.000000	122.513	38.6581
4820.000000	121.993	34.8198
4870.000000	121.592	32.4753
4940.000000	121.007	29.7495
5000.000000	120.497	27.9185
5080.000000	119.828	26.1589
5150.000000	119.269	25.1939
5220.000000	118.745	24.6914
5300.000000	118.205	24.6066
5380.000000	117.746	24.9639
5450.000000	117.424	25.5423
5520.000000	117.192	26.2197
5600.000000	117.040	26.8396
5700.000000	116.982	26.8785
5800.000000	116.956	25.8927
5900.000000	116.882	24.3164
6000.000000	116.776	22.5380
6080.000000	116.686	20.9355
6150.000000	116.595	19.3545
6220.000000	116.480	17.6306
6300.000000	116.307	15.5723
6400.000000	116.030	13.0477
6500.000000	115.703	10.7639
6600.000000	115.345	8.8445
6700.000000	114.973	7.3296
6800.000000	114.596	6.1996
6900.000000	114.222	5.4361
7000.000000	113.857	5.0286
7100.000000	113.511	4.9751
7200.000000	113.200	5.2631
7300.000000	112.943	5.8669
7400.000000	112.758	6.7578
7500.000000	112.656	7.8711
7620.000000	112.648	9.3583
7750.000000	112.772	10.9258
7880.000000	113.018	12.1258
8000.000000	113.332	12.6347
8120.000000	113.696	12.4165
8250.000000	114.102	11.3211
8380.000000	114.478	9.4069
8500.000000	114.771	7.1233
8620.000000	115.014	4.6117
8750.000000	115.240	1.7589
8850.000000	115.386	-0.5273
9000.000000	115.547	-3.9816
9120.000000	115.636	-6.5834
9250.000000	115.726	-9.1030
9380.000000	115.856	-11.3157
9500.000000	116.045	-13.1962
9620.000000	116.326	-15.0905
9750.000000	116.746	-17.4197
9880.000000	117.281	-20.4138
10000.000000	117.843	-24.1805
10150.000000	118.538	-30.8350
10300.000000	119.064	-40.0113
10440.000000	119.249	-50.4661
10600.000000	118.981	-63.0657
10750.000000	118.269	-73.4995
10900.000000	117.226	-81.2115
11060.000000	115.955	-86.1722
11200.000000	114.883	-88.2881
11380.000000	113.746	-89.1676
11500.000000	113.181	-89.2415
11720.000000	112.514	-89.4171
11800.000000	112.364	-89.6689
12060.000000	112.065	-91.5928
12200.000000	111.954	-93.3596
12410.000000	111.759	-96.8046
12500.000000	111.650	-98.5069
12650.000000	111.423	-101.5513
12800.000000	111.133	-104.7500
13150.000000	110.210	-112.1147
13200.000000	110.052	-113.0931
13400.000000	109.369	-116.6951
13600.000000	108.627	-119.7057
13800.000000	107.861	-122.0650
14000.000000	107.099	-123.7987
14300.000000	106.015	-125.4045
14500.000000	105.360	-125.9188
14750.000000	104.652	-126.0608
15000.000000	104.122	-126.0317
15250.000000	103.809	-126.7152
15500.000000	103.649	-129.1594
15750.000000	103.444	-133.8817
16000.000000	102.903	-139.7715
16250.000000	101.870	-143.7852
16500.000000	100.528	-143.5465
16750.000000	99.332	-139.6316
17000.000000	98.677	-134.2372
17250.000000	98.664	-129.2810
17500.000000	99.162	-126.0012
17750.000000	99.991	-125.2076
18000.000000	100.975	-127.5500
18250.000000	101.934	-133.6699
18500.000000	102.663	-143.9890
18750.000000	102.955	-158.0520
19000.000000	102.656	-173.9697
19250.000000	101.720	171.0751
19500.000000	100.223	159.3804
19750.000000	98.327	151.6011
20000.000000	96.274	146.5518
