* Measurement data measured by REW V5.20.5
* Source: Input device not selected, no input selected, L, volume: no control
* Format: 512k Log Swept Sine, 1 sweep at -12.0 dBFS with no timing reference
* Dated: Sep 11, 2023 6:28:58 AM
* REW Settings:
*  C-weighting compensation: Off
*  Target level: 75.0 dB
* Note: ; 
* Measurement: b3s3 R
* Smoothing: 1/24 octave
* Frequency Step: 1/48 octave
* Start Frequency: 20.000 Hz
*
* Freq(Hz)	SPL(dB)	Phase(degrees)
20.000000	113.262	17.8890
20.299999	113.265	17.1271
20.600000	113.266	16.3712
20.900000	113.265	15.6275
21.200001	113.260	14.9072
21.400000	113.255	14.4468
21.799999	113.242	13.5800
22.000000	113.235	13.1732
22.400000	113.223	12.4021
22.700001	113.216	11.8423
23.000000	113.210	11.2799
23.299999	113.203	10.7069
23.600000	113.192	10.1261
24.000000	113.170	9.3566
24.299999	113.147	8.8024
24.700001	113.113	8.1119
25.000000	113.088	7.6294
25.400000	113.058	7.0141
25.799999	113.034	6.3984
26.200001	113.012	5.7598
26.500000	112.995	5.2672
26.900000	112.970	4.6070
27.200001	112.950	4.1224
27.600000	112.922	3.5007
28.000000	112.896	2.9044
28.500000	112.866	2.1771
29.000000	112.836	1.4603
29.500000	112.802	0.7698
30.000000	112.765	0.1296
30.400000	112.736	-0.3444
30.700001	112.714	-0.6842
31.100000	112.686	-1.1287
31.500000	112.657	-1.5704
32.000000	112.619	-2.1169
32.500000	112.578	-2.6492
33.000000	112.537	-3.1720
33.500000	112.496	-3.7036
34.000000	112.453	-4.2489
34.500000	112.407	-4.7814
35.000000	112.359	-5.2712
35.500000	112.318	-5.7214
36.000000	112.283	-6.1652
36.500000	112.253	-6.6209
37.000000	112.222	-7.0764
37.500000	112.190	-7.5194
38.200001	112.143	-8.1315
38.700001	112.101	-8.5508
39.500000	112.026	-9.1085
40.000000	111.984	-9.4214
40.599998	111.935	-9.8459
41.200001	111.878	-10.2969
41.799999	111.823	-10.7159
42.500000	111.777	-11.2656
43.099998	111.738	-11.8379
43.700001	111.704	-12.3700
44.400002	111.705	-13.0360
45.000000	111.715	-13.9115
45.500000	111.688	-14.6959
46.200001	111.633	-15.3267
46.799999	111.671	-15.7006
47.500000	111.742	-17.1278
48.200001	111.580	-19.0911
48.700001	111.312	-19.5314
49.400002	111.001	-18.1969
50.000000	110.980	-16.7217
50.799999	111.082	-16.2882
51.500000	111.061	-16.6491
52.200001	110.989	-16.7372
53.000000	110.948	-16.8294
53.799999	110.910	-17.2949
54.500000	110.849	-17.8154
55.200001	110.769	-18.2493
56.000000	110.676	-18.4884
57.000000	110.618	-18.5048
58.000000	110.610	-18.7889
59.000000	110.541	-19.3377
60.000000	110.412	-19.5202
60.799999	110.326	-19.4828
61.500000	110.263	-19.5352
62.200001	110.198	-19.6454
63.000000	110.138	-19.8079
64.000000	110.091	-20.3017
65.000000	110.020	-21.0152
66.000000	109.945	-21.5012
67.000000	109.908	-21.9072
68.000000	109.868	-22.3754
69.000000	109.797	-22.6644
70.000000	109.725	-22.5631
71.000000	109.697	-22.4053
72.000000	109.663	-22.5081
73.000000	109.595	-22.6296
74.000000	109.515	-22.7437
75.000000	109.418	-22.8407
76.199997	109.300	-22.8399
77.500000	109.187	-22.9016
78.800003	109.068	-23.1066
80.000000	108.944	-23.1832
81.199997	108.893	-23.2274
82.500000	108.826	-24.0555
83.800003	108.660	-24.3009
85.000000	108.601	-24.1126
86.199997	108.569	-24.0106
87.500000	108.564	-23.7620
88.500000	108.562	-23.6340
90.000000	108.532	-23.4532
91.199997	108.448	-23.4766
92.500000	108.257	-23.4838
93.800003	107.976	-23.1958
95.000000	107.719	-22.4651
96.199997	107.610	-21.3999
97.500000	107.801	-21.3772
98.800003	107.954	-23.9866
100.000000	107.769	-26.1224
101.500000	107.528	-25.5463
103.000000	107.570	-24.2415
104.400002	107.619	-23.5058
106.000000	107.603	-23.0452
107.500000	107.535	-22.8886
109.000000	107.460	-22.8436
110.599998	107.412	-22.7626
112.000000	107.390	-22.5990
113.800003	107.374	-22.4567
115.000000	107.316	-22.5599
117.199997	107.130	-22.3570
118.000000	107.081	-22.2214
120.599998	106.969	-21.9884
122.000000	106.912	-21.7794
124.099998	106.846	-21.4669
125.000000	106.812	-21.4137
126.500000	106.747	-21.3377
128.000000	106.685	-21.1846
131.500000	106.582	-20.5073
132.000000	106.568	-20.4088
134.000000	106.498	-20.1283
136.000000	106.407	-19.9856
138.000000	106.322	-19.8170
140.000000	106.274	-19.5249
143.000000	106.214	-19.0913
145.000000	106.165	-18.7110
147.500000	106.109	-18.3309
150.000000	106.049	-18.0269
152.500000	105.992	-17.6576
155.000000	105.944	-17.2907
157.500000	105.897	-16.9485
160.000000	105.847	-16.6352
162.500000	105.800	-16.3276
165.000000	105.759	-16.0695
167.500000	105.719	-15.7006
170.000000	105.693	-15.1465
172.500000	105.663	-14.6504
175.000000	105.602	-14.3201
177.500000	105.545	-14.0404
180.000000	105.518	-13.7269
182.500000	105.489	-13.2425
185.000000	105.441	-12.7564
187.500000	105.397	-12.6726
190.000000	105.353	-12.8699
192.500000	105.322	-12.5396
195.000000	105.336	-11.8068
197.500000	105.335	-11.2605
200.000000	105.306	-10.9203
203.000000	105.283	-10.6217
206.000000	105.277	-10.3279
209.000000	105.268	-9.9425
212.000000	105.251	-9.4974
214.000000	105.237	-9.2027
218.000000	105.215	-8.7227
220.000000	105.202	-8.5385
224.000000	105.175	-8.1236
227.000000	105.170	-7.8087
230.000000	105.174	-7.5106
233.000000	105.198	-7.0768
236.000000	105.235	-6.5684
240.000000	105.225	-6.1297
243.000000	105.179	-6.1413
247.000000	105.151	-6.2776
250.000000	105.142	-6.0084
254.000000	105.137	-5.3004
258.000000	105.129	-4.8052
262.000000	105.118	-4.4397
265.000000	105.117	-4.1673
269.000000	105.125	-3.8089
272.000000	105.128	-3.5666
276.000000	105.125	-3.2521
280.000000	105.119	-2.8859
285.000000	105.131	-2.4581
290.000000	105.140	-2.1737
295.000000	105.152	-1.8281
300.000000	105.181	-1.2956
304.000000	105.188	-0.9271
307.000000	105.191	-0.7641
311.000000	105.197	-0.6414
315.000000	105.204	-0.4724
320.000000	105.214	-0.1700
325.000000	105.230	0.1165
330.000000	105.243	0.3572
335.000000	105.248	0.5447
340.000000	105.252	0.7323
345.000000	105.253	0.9251
350.000000	105.253	1.1239
355.000000	105.259	1.3350
360.000000	105.267	1.5770
365.000000	105.273	1.8608
370.000000	105.279	2.0682
375.000000	105.289	2.2674
382.000000	105.301	2.5817
387.000000	105.308	2.7654
395.000000	105.318	3.0674
400.000000	105.321	3.2399
406.000000	105.325	3.4487
412.000000	105.330	3.6979
418.000000	105.334	3.9288
425.000000	105.343	4.1715
431.000000	105.355	4.3756
437.000000	105.359	4.5422
444.000000	105.358	4.7465
450.000000	105.355	4.9617
455.000000	105.357	5.1206
462.000000	105.367	5.3095
468.000000	105.374	5.4665
475.000000	105.376	5.6383
482.000000	105.378	5.8253
487.000000	105.380	5.9688
494.000000	105.377	6.1502
500.000000	105.372	6.2953
508.000000	105.374	6.5041
515.000000	105.379	6.7044
522.000000	105.385	6.8930
530.000000	105.390	7.0968
538.000000	105.388	7.3114
545.000000	105.384	7.5040
552.000000	105.381	7.6822
560.000000	105.382	7.8802
570.000000	105.387	8.1611
580.000000	105.394	8.4592
590.000000	105.400	8.7504
600.000000	105.400	9.0093
608.000000	105.398	9.2111
615.000000	105.396	9.3976
622.000000	105.396	9.5978
630.000000	105.399	9.8276
640.000000	105.405	10.1349
650.000000	105.409	10.4771
660.000000	105.409	10.7842
670.000000	105.409	11.0718
680.000000	105.412	11.3887
690.000000	105.416	11.7120
700.000000	105.423	12.0533
710.000000	105.430	12.4308
720.000000	105.437	12.8140
730.000000	105.444	13.1744
740.000000	105.451	13.5089
750.000000	105.459	13.8509
762.000000	105.471	14.3128
775.000000	105.488	14.8284
788.000000	105.509	15.3257
800.000000	105.532	15.8163
812.000000	105.558	16.3270
825.000000	105.588	16.8520
838.000000	105.621	17.3701
850.000000	105.657	17.8868
862.000000	105.701	18.4265
875.000000	105.753	19.0073
885.000000	105.792	19.4442
900.000000	105.858	20.0795
912.000000	105.919	20.5774
925.000000	105.990	21.1169
938.000000	106.063	21.6499
950.000000	106.138	22.1283
962.000000	106.220	22.5938
975.000000	106.312	23.0855
988.000000	106.406	23.5376
1000.000000	106.499	23.9074
1015.000000	106.624	24.3111
1030.000000	106.750	24.6702
1044.000000	106.870	24.9757
1060.000000	107.015	25.2785
1075.000000	107.153	25.4970
1090.000000	107.289	25.6453
1106.000000	107.437	25.7406
1120.000000	107.568	25.7573
1138.000000	107.729	25.6804
1150.000000	107.834	25.6047
1172.000000	108.021	25.4403
1180.000000	108.086	25.3548
1206.000000	108.287	24.9340
1220.000000	108.392	24.6650
1241.000000	108.543	24.2411
1250.000000	108.603	24.0391
1265.000000	108.699	23.6820
1280.000000	108.787	23.3332
1315.000000	108.976	22.5647
1320.000000	109.001	22.4430
1340.000000	109.100	21.9322
1360.000000	109.191	21.4425
1380.000000	109.275	20.9777
1400.000000	109.353	20.5108
1430.000000	109.455	19.8749
1450.000000	109.519	19.4789
1475.000000	109.599	18.9537
1500.000000	109.675	18.4365
1525.000000	109.746	17.9624
1550.000000	109.819	17.5123
1575.000000	109.888	17.1170
1600.000000	109.955	16.7508
1625.000000	110.026	16.3674
1650.000000	110.102	15.9815
1675.000000	110.175	15.6149
1700.000000	110.249	15.2580
1725.000000	110.327	14.9115
1750.000000	110.402	14.5857
1775.000000	110.479	14.2700
1800.000000	110.565	13.9518
1825.000000	110.655	13.6206
1850.000000	110.745	13.2811
1875.000000	110.839	12.9409
1900.000000	110.937	12.6068
1925.000000	111.035	12.2882
1950.000000	111.133	11.9657
1975.000000	111.235	11.6206
2000.000000	111.343	11.2486
2030.000000	111.477	10.7728
2060.000000	111.616	10.2764
2090.000000	111.759	9.7442
2120.000000	111.902	9.1759
2140.000000	111.997	8.7892
2180.000000	112.195	7.9973
2200.000000	112.299	7.5697
2240.000000	112.511	6.5851
2270.000000	112.673	5.7568
2300.000000	112.838	4.8922
2330.000000	113.003	3.9786
2360.000000	113.163	2.9934
2400.000000	113.377	1.5719
2430.000000	113.538	0.4415
2470.000000	113.752	-1.1555
2500.000000	113.911	-2.4377
2540.000000	114.118	-4.2490
2580.000000	114.314	-6.1631
2620.000000	114.494	-8.1846
2650.000000	114.619	-9.7670
2690.000000	114.776	-11.9606
2720.000000	114.886	-13.6656
2760.000000	115.018	-16.0098
2800.000000	115.131	-18.4209
2850.000000	115.244	-21.4939
2900.000000	115.323	-24.6064
2950.000000	115.365	-27.7204
3000.000000	115.378	-30.8184
3040.000000	115.369	-33.2709
3070.000000	115.350	-35.0925
3110.000000	115.310	-37.4929
3150.000000	115.257	-39.8355
3200.000000	115.169	-42.6424
3250.000000	115.059	-45.3142
3300.000000	114.937	-47.8500
3350.000000	114.809	-50.2512
3400.000000	114.682	-52.5378
3450.000000	114.555	-54.7445
3500.000000	114.422	-56.8533
3550.000000	114.287	-58.8450
3600.000000	114.153	-60.7613
3650.000000	114.021	-62.6342
3700.000000	113.890	-64.4355
3750.000000	113.764	-66.1463
3820.000000	113.599	-68.4776
3870.000000	113.487	-70.1056
3950.000000	113.312	-72.5269
4000.000000	113.208	-73.9834
4060.000000	113.092	-75.7629
4120.000000	112.984	-77.5449
4180.000000	112.886	-79.2809
4250.000000	112.784	-81.3274
4310.000000	112.703	-83.1361
4370.000000	112.621	-84.9570
4440.000000	112.523	-87.1103
4500.000000	112.439	-89.0123
4550.000000	112.368	-90.6218
4620.000000	112.266	-92.8870
4680.000000	112.174	-94.8566
4750.000000	112.059	-97.1859
4820.000000	111.930	-99.4785
4870.000000	111.830	-101.0776
4940.000000	111.686	-103.2652
5000.000000	111.559	-105.0638
5080.000000	111.391	-107.3052
5150.000000	111.260	-109.1665
5220.000000	111.158	-110.9940
5300.000000	111.082	-113.0453
5380.000000	111.057	-115.2096
5450.000000	111.081	-117.4745
5520.000000	111.132	-120.3221
5600.000000	111.163	-124.4682
5700.000000	111.030	-130.9498
5800.000000	110.585	-137.9351
5900.000000	109.830	-143.8111
6000.000000	108.901	-147.7534
6080.000000	108.147	-149.6794
6150.000000	107.522	-150.7188
6220.000000	106.936	-151.3374
6300.000000	106.311	-151.7078
6400.000000	105.580	-151.7724
6500.000000	104.894	-151.2650
6600.000000	104.265	-150.0566
6700.000000	103.729	-148.2635
6800.000000	103.309	-146.1390
6900.000000	103.002	-143.9214
7000.000000	102.796	-141.8271
7100.000000	102.674	-139.9337
7200.000000	102.609	-138.2130
7300.000000	102.594	-136.6566
7400.000000	102.628	-135.2768
7500.000000	102.705	-134.0659
7620.000000	102.837	-132.7498
7750.000000	103.046	-131.4948
7880.000000	103.336	-130.4522
8000.000000	103.670	-129.5896
8120.000000	104.075	-128.8289
8250.000000	104.604	-128.2010
8380.000000	105.235	-127.7687
8500.000000	105.931	-127.5161
8620.000000	106.792	-127.4977
8750.000000	107.967	-128.1529
8850.000000	109.031	-129.6233
9000.000000	110.801	-134.2419
9120.000000	112.277	-140.5218
9250.000000	113.802	-150.3686
9380.000000	115.058	-163.6858
9500.000000	115.784	-178.6456
9620.000000	115.973	-194.6583
9750.000000	115.591	-210.8669
9880.000000	114.787	-224.2726
10000.000000	113.890	-233.9905
10150.000000	112.798	-243.4222
10300.000000	111.859	-251.0531
10440.000000	111.134	-257.4586
10600.000000	110.445	-264.6321
10750.000000	109.862	-271.4834
10900.000000	109.278	-278.3557
11060.000000	108.614	-285.4418
11200.000000	108.003	-291.2442
11380.000000	107.224	-298.0600
11500.000000	106.742	-302.2879
11720.000000	105.967	-309.8645
11800.000000	105.708	-312.6774
12060.000000	104.857	-322.1363
12200.000000	104.368	-327.3835
12410.000000	103.563	-335.2438
12500.000000	103.187	-338.5074
12650.000000	102.523	-343.6523
12800.000000	101.830	-348.2872
13150.000000	100.236	-356.8601
13200.000000	100.023	-357.8547
13400.000000	99.233	-361.4099
13600.000000	98.563	-364.4687
13800.000000	98.033	-367.2068
14000.000000	97.657	-369.8025
14300.000000	97.400	-373.9079
14500.000000	97.443	-376.9364
14750.000000	97.752	-381.2239
15000.000000	98.346	-386.5190
15250.000000	99.236	-393.3455
15500.000000	100.408	-402.3363
15750.000000	101.755	-414.3417
16000.000000	103.067	-430.0959
16250.000000	104.091	-449.5010
16500.000000	104.702	-470.9363
16750.000000	105.025	-492.4319
17000.000000	105.290	-513.8718
17250.000000	105.513	-536.4905
17500.000000	105.522	-560.5417
17750.000000	105.246	-585.0615
18000.000000	104.725	-609.1908
18250.000000	104.060	-632.1160
18500.000000	103.516	-653.9034
18750.000000	103.315	-676.7424
19000.000000	103.263	-702.6071
19250.000000	103.078	-731.1981
19500.000000	102.724	-761.8316
19750.000000	102.242	-795.1376
20000.000000	101.548	-832.5511
