* Measurement data measured by REW V5.20.5
* Source: Input device not selected, no input selected, L, volume: no control
* Format: 512k Log Swept Sine, 1 sweep at -12.0 dBFS with no timing reference
* Dated: Sep 11, 2023 6:29:40 AM
* REW Settings:
*  C-weighting compensation: Off
*  Target level: 75.0 dB
* Note: ; 
* Measurement: b3s3 L
* Smoothing: 1/24 octave
* Frequency Step: 1/48 octave
* Start Frequency: 20.000 Hz
*
* Freq(Hz)	SPL(dB)	Phase(degrees)
20.000000	113.882	14.4197
20.299999	113.873	13.6469
20.600000	113.867	12.8959
20.900000	113.862	12.1570
21.200001	113.857	11.4264
21.400000	113.852	10.9486
21.799999	113.837	10.0323
22.000000	113.829	9.6013
22.400000	113.811	8.8008
22.700001	113.801	8.2406
23.000000	113.795	7.6882
23.299999	113.791	7.1182
23.600000	113.784	6.5202
24.000000	113.765	5.6887
24.299999	113.740	5.0693
24.700001	113.694	4.2965
25.000000	113.655	3.7771
25.400000	113.605	3.1592
25.799999	113.561	2.5843
26.200001	113.524	2.0051
26.500000	113.498	1.5560
26.900000	113.463	0.9449
27.200001	113.437	0.4892
27.600000	113.403	-0.1061
28.000000	113.372	-0.6964
28.500000	113.337	-1.4537
29.000000	113.299	-2.2296
29.500000	113.253	-2.9699
30.000000	113.205	-3.6220
30.400000	113.173	-4.0916
30.700001	113.153	-4.4376
31.100000	113.129	-4.9206
31.500000	113.102	-5.4316
32.000000	113.059	-6.0658
32.500000	113.007	-6.6359
33.000000	112.958	-7.1471
33.500000	112.914	-7.6624
34.000000	112.868	-8.2107
34.500000	112.816	-8.7485
35.000000	112.765	-9.2513
35.500000	112.721	-9.7855
36.000000	112.671	-10.4186
36.500000	112.595	-11.0675
37.000000	112.495	-11.5138
37.500000	112.406	-11.6514
38.200001	112.364	-11.6862
38.700001	112.375	-11.9726
39.500000	112.357	-12.8977
40.000000	112.307	-13.4473
40.599998	112.242	-13.9359
41.200001	112.191	-14.3757
41.799999	112.144	-14.8715
42.500000	112.079	-15.4956
43.099998	112.012	-16.0089
43.700001	111.939	-16.4295
44.400002	111.867	-16.7796
45.000000	111.826	-17.0677
45.500000	111.799	-17.3525
46.200001	111.764	-17.7559
46.799999	111.748	-18.1319
47.500000	111.727	-18.8183
48.200001	111.643	-19.6083
48.700001	111.546	-19.9192
49.400002	111.432	-19.8896
50.000000	111.389	-19.8179
50.799999	111.351	-20.0847
51.500000	111.285	-20.4169
52.200001	111.214	-20.6414
53.000000	111.146	-20.9249
53.799999	111.077	-21.2908
54.500000	111.016	-21.6128
55.200001	110.959	-21.9600
56.000000	110.891	-22.3849
57.000000	110.803	-22.8880
58.000000	110.702	-23.3284
59.000000	110.586	-23.4998
60.000000	110.498	-23.3756
60.799999	110.460	-23.2528
61.500000	110.446	-23.2749
62.200001	110.426	-23.5003
63.000000	110.370	-23.9031
64.000000	110.255	-24.2871
65.000000	110.143	-24.5011
66.000000	110.049	-24.7395
67.000000	109.960	-25.0542
68.000000	109.871	-25.3162
69.000000	109.805	-25.5186
70.000000	109.751	-25.8466
71.000000	109.670	-26.2077
72.000000	109.565	-26.3270
73.000000	109.480	-26.1693
74.000000	109.436	-26.0416
75.000000	109.397	-26.1363
76.199997	109.325	-26.3502
77.500000	109.226	-26.5724
78.800003	109.114	-26.6481
80.000000	109.026	-26.6384
81.199997	108.944	-26.6126
82.500000	108.883	-26.5744
83.800003	108.822	-26.8158
85.000000	108.720	-27.0058
86.199997	108.617	-26.9525
87.500000	108.527	-26.9176
88.500000	108.460	-26.9132
90.000000	108.394	-26.9371
91.199997	108.342	-27.1630
92.500000	108.235	-27.1281
93.800003	108.134	-26.3580
95.000000	108.115	-25.2585
96.199997	108.171	-24.6771
97.500000	108.108	-25.2366
98.800003	107.814	-25.2289
100.000000	107.659	-24.3085
101.500000	107.677	-24.7292
103.000000	107.602	-25.9647
104.400002	107.535	-26.5626
106.000000	107.485	-26.7331
107.500000	107.437	-26.5962
109.000000	107.356	-26.3977
110.599998	107.260	-26.1501
112.000000	107.197	-26.1263
113.800003	107.102	-26.2563
115.000000	107.034	-26.1736
117.199997	106.935	-25.8046
118.000000	106.901	-25.6990
120.599998	106.773	-25.4925
122.000000	106.701	-25.3645
124.099998	106.631	-24.9914
125.000000	106.611	-24.8701
126.500000	106.562	-24.6927
128.000000	106.501	-24.4720
131.500000	106.361	-24.0406
132.000000	106.342	-23.9790
134.000000	106.269	-23.6668
136.000000	106.202	-23.2644
138.000000	106.143	-22.8316
140.000000	106.091	-22.5366
143.000000	105.994	-22.2690
145.000000	105.926	-22.0239
147.500000	105.851	-21.6259
150.000000	105.788	-21.2321
152.500000	105.724	-20.9224
155.000000	105.662	-20.5849
157.500000	105.609	-20.1692
160.000000	105.557	-19.7394
162.500000	105.502	-19.3614
165.000000	105.455	-19.0395
167.500000	105.413	-18.7108
170.000000	105.362	-18.3023
172.500000	105.307	-17.8340
175.000000	105.259	-17.4328
177.500000	105.217	-17.0665
180.000000	105.182	-16.6879
182.500000	105.150	-16.3066
185.000000	105.122	-15.9293
187.500000	105.095	-15.5435
190.000000	105.068	-15.1388
192.500000	105.043	-14.7532
195.000000	105.021	-14.4502
197.500000	104.994	-14.1890
200.000000	104.966	-13.8596
203.000000	104.944	-13.4381
206.000000	104.922	-13.0290
209.000000	104.903	-12.6178
212.000000	104.882	-12.1981
214.000000	104.868	-11.9168
218.000000	104.841	-11.4187
220.000000	104.831	-11.1964
224.000000	104.815	-10.7445
227.000000	104.802	-10.4352
230.000000	104.796	-10.1903
233.000000	104.797	-9.9477
236.000000	104.790	-9.6727
240.000000	104.753	-9.1864
243.000000	104.732	-8.7459
247.000000	104.713	-8.3571
250.000000	104.710	-8.0350
254.000000	104.724	-7.5305
258.000000	104.723	-7.1081
262.000000	104.722	-6.7436
265.000000	104.721	-6.4697
269.000000	104.717	-6.1238
272.000000	104.714	-5.8870
276.000000	104.710	-5.5500
280.000000	104.706	-5.1937
285.000000	104.712	-4.8850
290.000000	104.721	-4.3861
295.000000	104.739	-3.9122
300.000000	104.749	-3.4487
304.000000	104.739	-3.0934
307.000000	104.741	-2.8152
311.000000	104.765	-2.4632
315.000000	104.791	-2.2124
320.000000	104.818	-2.0032
325.000000	104.840	-1.8300
330.000000	104.859	-1.6535
335.000000	104.873	-1.4550
340.000000	104.871	-1.2344
345.000000	104.867	-0.9834
350.000000	104.879	-0.7321
355.000000	104.897	-0.5107
360.000000	104.899	-0.3377
365.000000	104.896	-0.1554
370.000000	104.903	0.0457
375.000000	104.917	0.2374
382.000000	104.930	0.5160
387.000000	104.932	0.7209
395.000000	104.936	1.0204
400.000000	104.940	1.2085
406.000000	104.944	1.4096
412.000000	104.947	1.6100
418.000000	104.952	1.8378
425.000000	104.961	2.1030
431.000000	104.967	2.3271
437.000000	104.971	2.5547
444.000000	104.974	2.7886
450.000000	104.976	2.9642
455.000000	104.977	3.1269
462.000000	104.980	3.3657
468.000000	104.985	3.5599
475.000000	104.990	3.7842
482.000000	104.993	4.0117
487.000000	104.997	4.1731
494.000000	105.003	4.4108
500.000000	105.005	4.6254
508.000000	105.003	4.8594
515.000000	105.007	5.0394
522.000000	105.011	5.2293
530.000000	105.009	5.4397
538.000000	105.007	5.6336
545.000000	105.006	5.8153
552.000000	105.006	5.9996
560.000000	105.006	6.1985
570.000000	105.006	6.4643
580.000000	105.007	6.7386
590.000000	105.010	7.0047
600.000000	105.009	7.2954
608.000000	105.006	7.5292
615.000000	105.003	7.7232
622.000000	105.001	7.9182
630.000000	104.999	8.1546
640.000000	105.000	8.4560
650.000000	105.002	8.7637
660.000000	105.001	9.0771
670.000000	105.003	9.3823
680.000000	105.006	9.6952
690.000000	105.007	10.0313
700.000000	105.008	10.3758
710.000000	105.012	10.7295
720.000000	105.015	11.0898
730.000000	105.018	11.4426
740.000000	105.023	11.8113
750.000000	105.031	12.1946
762.000000	105.043	12.6617
775.000000	105.061	13.1893
788.000000	105.081	13.7325
800.000000	105.101	14.2360
812.000000	105.126	14.7422
825.000000	105.157	15.3031
838.000000	105.194	15.8682
850.000000	105.230	16.3800
862.000000	105.269	16.9057
875.000000	105.317	17.4995
885.000000	105.357	17.9475
900.000000	105.423	18.6026
912.000000	105.481	19.1172
925.000000	105.549	19.6627
938.000000	105.623	20.2011
950.000000	105.696	20.6980
962.000000	105.775	21.1903
975.000000	105.868	21.6940
988.000000	105.966	22.1416
1000.000000	106.059	22.5190
1015.000000	106.176	22.9615
1030.000000	106.300	23.3570
1044.000000	106.419	23.6825
1060.000000	106.559	24.0095
1075.000000	106.695	24.2613
1090.000000	106.833	24.4484
1106.000000	106.976	24.5680
1120.000000	107.100	24.6165
1138.000000	107.261	24.6303
1150.000000	107.367	24.5992
1172.000000	107.554	24.4593
1180.000000	107.618	24.3846
1206.000000	107.817	24.0697
1220.000000	107.919	23.8528
1241.000000	108.068	23.4699
1250.000000	108.129	23.2945
1265.000000	108.225	22.9869
1280.000000	108.314	22.6557
1315.000000	108.501	21.8455
1320.000000	108.526	21.7353
1340.000000	108.621	21.2958
1360.000000	108.712	20.8416
1380.000000	108.795	20.3905
1400.000000	108.871	19.9531
1430.000000	108.975	19.3064
1450.000000	109.039	18.8946
1475.000000	109.117	18.4190
1500.000000	109.192	17.9798
1525.000000	109.265	17.5763
1550.000000	109.337	17.1821
1575.000000	109.410	16.7973
1600.000000	109.482	16.4572
1625.000000	109.551	16.1581
1650.000000	109.621	15.8541
1675.000000	109.694	15.5422
1700.000000	109.770	15.2437
1725.000000	109.848	14.9639
1750.000000	109.928	14.6988
1775.000000	110.009	14.4523
1800.000000	110.093	14.2172
1825.000000	110.181	13.9666
1850.000000	110.272	13.7028
1875.000000	110.366	13.4384
1900.000000	110.465	13.1774
1925.000000	110.566	12.9189
1950.000000	110.668	12.6565
1975.000000	110.772	12.3864
2000.000000	110.883	12.1057
2030.000000	111.022	11.7421
2060.000000	111.163	11.3402
2090.000000	111.306	10.9167
2120.000000	111.455	10.4710
2140.000000	111.557	10.1503
2180.000000	111.765	9.4345
2200.000000	111.872	9.0501
2240.000000	112.094	8.2373
2270.000000	112.262	7.5697
2300.000000	112.431	6.8372
2330.000000	112.604	6.0425
2360.000000	112.782	5.1903
2400.000000	113.020	3.9531
2430.000000	113.196	2.9480
2470.000000	113.430	1.5133
2500.000000	113.603	0.3590
2540.000000	113.831	-1.2954
2580.000000	114.056	-3.0813
2620.000000	114.274	-4.9981
2650.000000	114.428	-6.5154
2690.000000	114.621	-8.6209
2720.000000	114.757	-10.2571
2760.000000	114.925	-12.5245
2800.000000	115.079	-14.8936
2850.000000	115.247	-17.9551
2900.000000	115.383	-21.1033
2950.000000	115.478	-24.3270
3000.000000	115.538	-27.5750
3040.000000	115.564	-30.1840
3070.000000	115.571	-32.1469
3110.000000	115.562	-34.7447
3150.000000	115.533	-37.2784
3200.000000	115.470	-40.3301
3250.000000	115.384	-43.2595
3300.000000	115.284	-46.0580
3350.000000	115.173	-48.7151
3400.000000	115.054	-51.2519
3450.000000	114.929	-53.6777
3500.000000	114.799	-55.9826
3550.000000	114.667	-58.1841
3600.000000	114.536	-60.3040
3650.000000	114.405	-62.3253
3700.000000	114.276	-64.2429
3750.000000	114.149	-66.0759
3820.000000	113.977	-68.5356
3870.000000	113.859	-70.2353
3950.000000	113.681	-72.8735
4000.000000	113.578	-74.4733
4060.000000	113.460	-76.3281
4120.000000	113.345	-78.1301
4180.000000	113.237	-79.9201
4250.000000	113.124	-82.0044
4310.000000	113.037	-83.8041
4370.000000	112.957	-85.6439
4440.000000	112.865	-87.8564
4500.000000	112.783	-89.8156
4550.000000	112.710	-91.4939
4620.000000	112.600	-93.9059
4680.000000	112.498	-95.9968
4750.000000	112.368	-98.4250
4820.000000	112.222	-100.8261
4870.000000	112.105	-102.5071
4940.000000	111.926	-104.7898
5000.000000	111.763	-106.6627
5080.000000	111.538	-109.0027
5150.000000	111.341	-110.8719
5220.000000	111.157	-112.5673
5300.000000	110.973	-114.3308
5380.000000	110.828	-115.9686
5450.000000	110.745	-117.3757
5520.000000	110.710	-118.8953
5600.000000	110.733	-120.9894
5700.000000	110.823	-124.5195
5800.000000	110.885	-129.4541
5900.000000	110.766	-135.7146
6000.000000	110.354	-142.3259
6080.000000	109.816	-147.0267
6150.000000	109.238	-150.3841
6220.000000	108.605	-152.9663
6300.000000	107.859	-155.0178
6400.000000	106.939	-156.4239
6500.000000	106.070	-156.7417
6600.000000	105.285	-156.0818
6700.000000	104.623	-154.6306
6800.000000	104.109	-152.7261
6900.000000	103.737	-150.6818
7000.000000	103.477	-148.6826
7100.000000	103.310	-146.8226
7200.000000	103.225	-145.1629
7300.000000	103.199	-143.7105
7400.000000	103.217	-142.4241
7500.000000	103.279	-141.2509
7620.000000	103.410	-139.9381
7750.000000	103.633	-138.6375
7880.000000	103.944	-137.6156
8000.000000	104.309	-136.9012
8120.000000	104.757	-136.3247
8250.000000	105.343	-135.9374
8380.000000	106.047	-135.9699
8500.000000	106.810	-136.4543
8620.000000	107.695	-137.4369
8750.000000	108.822	-139.2197
8850.000000	109.814	-141.3503
9000.000000	111.479	-146.5213
9120.000000	112.894	-153.1508
9250.000000	114.340	-163.6667
9380.000000	115.436	-177.8634
9500.000000	115.932	-193.2667
9620.000000	115.870	-208.9225
9750.000000	115.287	-223.9735
9880.000000	114.395	-235.9798
10000.000000	113.498	-244.5698
10150.000000	112.471	-252.9418
10300.000000	111.643	-259.8001
10440.000000	111.051	-265.6062
10600.000000	110.550	-272.1805
10750.000000	110.195	-278.7369
10900.000000	109.882	-285.8855
11060.000000	109.523	-294.1393
11200.000000	109.144	-301.7594
11380.000000	108.539	-311.7447
11500.000000	108.058	-318.2829
11720.000000	107.044	-329.5450
11800.000000	106.645	-333.3435
12060.000000	105.283	-344.5542
12200.000000	104.530	-349.8360
12410.000000	103.435	-356.8423
12500.000000	102.993	-359.5923
12650.000000	102.302	-363.9409
12800.000000	101.658	-368.0656
13150.000000	100.284	-376.9350
13200.000000	100.103	-378.1120
13400.000000	99.416	-382.5829
13600.000000	98.817	-386.6884
13800.000000	98.338	-390.5200
14000.000000	98.006	-394.1703
14300.000000	97.802	-399.6869
14500.000000	97.868	-403.7235
14750.000000	98.182	-409.4865
15000.000000	98.761	-416.4889
15250.000000	99.595	-425.3240
15500.000000	100.633	-436.5475
15750.000000	101.769	-450.7396
16000.000000	102.811	-468.3815
16250.000000	103.549	-489.1091
16500.000000	103.869	-511.4074
16750.000000	103.829	-533.5055
17000.000000	103.622	-554.5988
17250.000000	103.413	-575.1646
17500.000000	103.215	-596.0068
17750.000000	102.985	-616.7833
18000.000000	102.918	-636.6187
18250.000000	103.378	-657.2426
18500.000000	104.135	-682.5662
18750.000000	104.555	-713.3851
19000.000000	104.384	-746.8499
19250.000000	103.768	-780.4846
19500.000000	102.963	-814.1378
19750.000000	102.095	-849.2683
20000.000000	101.090	-887.7142
