* Measurement data measured by REW V5.20.9
* Source: Input device not selected, no input selected, R, volume: no control
* Format: 512k Log Swept Sine, 1 sweep at -12.0 dBFS with no timing reference
* Dated: Oct 1, 2023 5:35:56 PM
* REW Settings:
*  C-weighting compensation: Off
*  Target level: 75.0 dB
* Note: ; 
* Measurement: b3s58k L
* Smoothing: 1/24 octave
* Frequency Step: 1/48 octave
* Start Frequency: 20.000 Hz
*
* Freq(Hz)	SPL(dB)	Phase(degrees)
20.000000	108.084	21.6013
20.299999	108.064	20.7444
20.600000	108.050	20.1288
20.900000	108.065	19.6971
21.200001	108.127	19.2534
21.400000	108.184	18.8175
21.799999	108.294	17.5359
22.000000	108.325	16.7313
22.400000	108.305	15.1005
22.700001	108.232	14.2147
23.000000	108.158	13.8417
23.299999	108.147	13.8336
23.600000	108.225	13.8184
24.000000	108.439	13.1018
24.299999	108.600	11.7147
24.700001	108.693	8.9184
25.000000	108.622	6.6658
25.400000	108.355	4.3587
25.799999	108.016	3.5013
26.200001	107.776	3.8517
26.500000	107.713	4.3113
26.900000	107.739	4.5005
27.200001	107.765	4.2038
27.600000	107.737	3.5836
28.000000	107.652	3.3209
28.500000	107.592	3.6947
29.000000	107.656	3.9470
29.500000	107.731	3.3527
30.000000	107.691	2.3509
30.400000	107.589	1.7809
30.700001	107.506	1.5221
31.100000	107.405	1.1628
31.500000	107.292	0.6224
32.000000	107.091	-0.1216
32.500000	106.856	-0.6312
33.000000	106.642	-1.2993
33.500000	106.347	-2.4710
34.000000	105.830	-2.5663
34.500000	105.386	0.8143
35.000000	105.778	6.3671
35.500000	107.012	8.3757
36.000000	108.116	3.2791
36.500000	108.466	-6.5414
37.000000	107.951	-15.0007
37.500000	106.911	-17.2491
38.200001	106.228	-12.0992
38.700001	106.690	-10.1423
39.500000	107.008	-14.2727
40.000000	106.632	-15.5955
40.599998	106.248	-13.2662
41.200001	106.390	-10.7681
41.799999	106.596	-10.7640
42.500000	106.504	-11.2820
43.099998	106.422	-10.5039
43.700001	106.497	-10.1448
44.400002	106.535	-11.1429
45.000000	106.422	-11.9832
45.500000	106.330	-12.1842
46.200001	106.301	-12.4283
46.799999	106.296	-13.0957
47.500000	106.228	-13.9102
48.200001	106.141	-14.2711
48.700001	106.101	-14.3434
49.400002	106.074	-14.4363
50.000000	106.062	-14.6258
50.799999	106.026	-15.1784
51.500000	105.929	-15.8059
52.200001	105.780	-16.1421
53.000000	105.646	-16.1205
53.799999	105.596	-16.3212
54.500000	105.560	-16.9124
55.200001	105.494	-17.5861
56.000000	105.409	-18.0824
57.000000	105.368	-18.3657
58.000000	105.380	-18.8170
59.000000	105.360	-19.4562
60.000000	105.278	-20.0873
60.799999	105.160	-20.3822
61.500000	105.056	-20.3953
62.200001	104.979	-20.4321
63.000000	104.894	-20.6967
64.000000	104.780	-21.0327
65.000000	104.713	-21.6309
66.000000	104.590	-22.5004
67.000000	104.448	-22.6154
68.000000	104.426	-22.5258
69.000000	104.415	-22.8462
70.000000	104.351	-23.0446
71.000000	104.272	-22.8997
72.000000	104.216	-22.4745
73.000000	104.215	-22.1674
74.000000	104.213	-22.3702
75.000000	104.148	-22.7665
76.199997	104.040	-23.0057
77.500000	103.952	-23.2031
78.800003	103.884	-23.5739
80.000000	103.788	-24.1556
81.199997	103.626	-24.4301
82.500000	103.494	-24.0815
83.800003	103.480	-23.9381
85.000000	103.476	-24.3827
86.199997	103.428	-25.0953
87.500000	103.286	-25.6387
88.500000	103.169	-25.4225
90.000000	103.112	-24.8362
91.199997	103.099	-24.7891
92.500000	103.051	-24.9991
93.800003	102.965	-25.2387
95.000000	102.873	-25.2473
96.199997	102.810	-25.0782
97.500000	102.752	-24.9288
98.800003	102.670	-24.6549
100.000000	102.594	-24.3106
101.500000	102.485	-24.1459
103.000000	102.337	-24.0978
104.400002	102.233	-24.0502
106.000000	102.183	-24.2888
107.500000	102.140	-24.6559
109.000000	102.081	-24.6802
110.599998	102.023	-24.2986
112.000000	101.990	-23.8647
113.800003	101.944	-23.6823
115.000000	101.881	-23.7878
117.199997	101.726	-23.7247
118.000000	101.693	-23.6504
120.599998	101.621	-23.6880
122.000000	101.580	-23.6721
124.099998	101.524	-23.4529
125.000000	101.505	-23.2994
126.500000	101.477	-23.0622
128.000000	101.443	-22.8891
131.500000	101.304	-22.8249
132.000000	101.273	-22.8047
134.000000	101.146	-22.4985
136.000000	101.036	-21.8052
138.000000	101.002	-20.8539
140.000000	101.016	-20.6652
143.000000	100.889	-21.0564
145.000000	100.797	-21.1760
147.500000	100.685	-20.9741
150.000000	100.633	-20.3590
152.500000	100.609	-20.2594
155.000000	100.563	-20.2593
157.500000	100.523	-19.8260
160.000000	100.504	-19.0606
162.500000	100.461	-18.4483
165.000000	100.394	-17.8744
167.500000	100.324	-17.4042
170.000000	100.238	-17.3125
172.500000	100.147	-17.5088
175.000000	100.116	-17.4163
177.500000	100.164	-16.8973
180.000000	100.198	-16.3042
182.500000	100.165	-15.7819
185.000000	100.107	-15.3091
187.500000	100.078	-14.9208
190.000000	100.061	-14.7130
192.500000	100.015	-14.4327
195.000000	99.971	-14.0383
197.500000	99.935	-13.7977
200.000000	99.899	-13.6091
203.000000	99.857	-13.1747
206.000000	99.852	-12.3154
209.000000	99.917	-11.8087
212.000000	99.891	-11.7446
214.000000	99.838	-11.4899
218.000000	99.761	-10.9280
220.000000	99.738	-10.7593
224.000000	99.742	-10.5327
227.000000	99.771	-10.3333
230.000000	99.799	-9.9928
233.000000	99.818	-9.5557
236.000000	99.825	-9.0548
240.000000	99.831	-8.4142
243.000000	99.860	-8.1915
247.000000	99.911	-8.0660
250.000000	99.929	-7.7610
254.000000	99.942	-7.3234
258.000000	99.932	-7.2937
262.000000	99.889	-7.1555
265.000000	99.882	-6.8849
269.000000	99.887	-6.6246
272.000000	99.878	-6.5055
276.000000	99.865	-6.3605
280.000000	99.856	-6.2070
285.000000	99.861	-6.0080
290.000000	99.886	-5.7332
295.000000	99.925	-5.3729
300.000000	99.952	-5.0112
304.000000	99.940	-4.8018
307.000000	99.926	-4.6836
311.000000	99.916	-4.5158
315.000000	99.907	-4.3021
320.000000	99.908	-4.1060
325.000000	99.921	-3.9841
330.000000	99.940	-3.7584
335.000000	99.973	-3.4836
340.000000	100.006	-3.1993
345.000000	100.025	-2.9986
350.000000	100.028	-2.8988
355.000000	99.998	-2.8163
360.000000	99.981	-2.7369
365.000000	99.989	-2.6512
370.000000	100.004	-2.5956
375.000000	100.030	-2.4428
382.000000	100.058	-1.9625
387.000000	100.048	-1.7183
395.000000	100.025	-1.4197
400.000000	100.022	-1.3340
406.000000	100.037	-1.3453
412.000000	100.052	-1.4294
418.000000	100.064	-1.4688
425.000000	100.075	-1.5329
431.000000	100.086	-1.3433
437.000000	100.098	-0.9156
444.000000	100.098	-0.4523
450.000000	100.100	-0.1310
455.000000	100.102	0.0164
462.000000	100.095	0.0253
468.000000	100.093	0.0376
475.000000	100.102	0.1439
482.000000	100.117	0.2798
487.000000	100.129	0.4005
494.000000	100.155	0.5975
500.000000	100.177	0.8022
508.000000	100.183	1.0573
515.000000	100.185	1.2107
522.000000	100.192	1.2618
530.000000	100.199	1.2399
538.000000	100.207	1.2295
545.000000	100.213	1.2479
552.000000	100.211	1.3176
560.000000	100.208	1.4851
570.000000	100.208	1.7937
580.000000	100.224	2.0323
590.000000	100.227	2.4146
600.000000	100.198	2.6746
608.000000	100.201	2.7507
615.000000	100.217	2.7986
622.000000	100.224	2.8352
630.000000	100.225	2.9152
640.000000	100.227	3.1344
650.000000	100.226	3.4777
660.000000	100.219	3.8593
670.000000	100.215	4.1827
680.000000	100.214	4.4508
690.000000	100.221	4.6531
700.000000	100.225	4.7647
710.000000	100.234	4.9041
720.000000	100.251	5.1431
730.000000	100.268	5.4686
740.000000	100.283	5.8566
750.000000	100.291	6.2443
762.000000	100.296	6.6954
775.000000	100.312	7.1617
788.000000	100.337	7.5856
800.000000	100.363	7.9604
812.000000	100.389	8.3281
825.000000	100.423	8.7598
838.000000	100.469	9.2564
850.000000	100.507	9.7178
862.000000	100.545	10.1876
875.000000	100.590	10.6935
885.000000	100.633	11.0829
900.000000	100.706	11.6503
912.000000	100.769	12.0753
925.000000	100.847	12.5164
938.000000	100.927	12.9518
950.000000	100.999	13.3433
962.000000	101.070	13.7251
975.000000	101.153	14.1169
988.000000	101.242	14.4966
1000.000000	101.328	14.8456
1015.000000	101.442	15.2406
1030.000000	101.564	15.5557
1044.000000	101.686	15.7524
1060.000000	101.822	15.8770
1075.000000	101.952	15.9230
1090.000000	102.086	15.9561
1106.000000	102.224	15.9451
1120.000000	102.334	15.9019
1138.000000	102.466	15.8328
1150.000000	102.554	15.7586
1172.000000	102.716	15.5319
1180.000000	102.774	15.4251
1206.000000	102.959	14.9747
1220.000000	103.056	14.6791
1241.000000	103.202	14.2231
1250.000000	103.263	14.0316
1265.000000	103.357	13.7075
1280.000000	103.441	13.3750
1315.000000	103.610	12.6306
1320.000000	103.632	12.5280
1340.000000	103.711	12.1288
1360.000000	103.780	11.7375
1380.000000	103.843	11.3460
1400.000000	103.906	10.9556
1430.000000	104.007	10.3793
1450.000000	104.072	9.9875
1475.000000	104.150	9.5421
1500.000000	104.225	9.1836
1525.000000	104.299	8.9065
1550.000000	104.375	8.6504
1575.000000	104.451	8.3530
1600.000000	104.533	8.0566
1625.000000	104.619	7.8123
1650.000000	104.701	7.6011
1675.000000	104.775	7.3870
1700.000000	104.842	7.1750
1725.000000	104.907	6.9863
1750.000000	104.976	6.8288
1775.000000	105.053	6.6730
1800.000000	105.140	6.4866
1825.000000	105.241	6.2543
1850.000000	105.357	6.0035
1875.000000	105.483	5.7690
1900.000000	105.610	5.5408
1925.000000	105.730	5.3293
1950.000000	105.840	5.1528
1975.000000	105.947	5.0002
2000.000000	106.053	4.8368
2030.000000	106.187	4.5901
2060.000000	106.331	4.2872
2090.000000	106.493	3.9425
2120.000000	106.667	3.5435
2140.000000	106.787	3.2329
2180.000000	107.032	2.5050
2200.000000	107.153	2.1135
2240.000000	107.390	1.3375
2270.000000	107.567	0.7367
2300.000000	107.748	0.0538
2330.000000	107.935	-0.7328
2360.000000	108.127	-1.6093
2400.000000	108.384	-2.8571
2430.000000	108.575	-3.8404
2470.000000	108.820	-5.2567
2500.000000	108.996	-6.4042
2540.000000	109.215	-8.0141
2580.000000	109.427	-9.6920
2620.000000	109.642	-11.5157
2650.000000	109.804	-13.0162
2690.000000	110.017	-15.1429
2720.000000	110.172	-16.7926
2760.000000	110.364	-19.0493
2800.000000	110.532	-21.4033
2850.000000	110.698	-24.4685
2900.000000	110.811	-27.5496
2950.000000	110.872	-30.6391
3000.000000	110.895	-33.7588
3040.000000	110.894	-36.2434
3070.000000	110.883	-38.0740
3110.000000	110.856	-40.4628
3150.000000	110.817	-42.7870
3200.000000	110.750	-45.6029
3250.000000	110.658	-48.2943
3300.000000	110.543	-50.8064
3350.000000	110.412	-53.1445
3400.000000	110.278	-55.3488
3450.000000	110.147	-57.4429
3500.000000	110.015	-59.4126
3550.000000	109.876	-61.2432
3600.000000	109.733	-62.9316
3650.000000	109.586	-64.4962
3700.000000	109.435	-65.9669
3750.000000	109.283	-67.3430
3820.000000	109.082	-69.1000
3870.000000	108.949	-70.2629
3950.000000	108.766	-72.0045
4000.000000	108.669	-73.0348
4060.000000	108.568	-74.2261
4120.000000	108.477	-75.3586
4180.000000	108.391	-76.4287
4250.000000	108.292	-77.6087
4310.000000	108.213	-78.6097
4370.000000	108.147	-79.6512
4440.000000	108.084	-80.9361
4500.000000	108.037	-82.0803
4550.000000	107.999	-83.0470
4620.000000	107.945	-84.4358
4680.000000	107.897	-85.6610
4750.000000	107.840	-87.0795
4820.000000	107.783	-88.4818
4870.000000	107.745	-89.4762
4940.000000	107.703	-90.8218
5000.000000	107.679	-91.9138
5080.000000	107.669	-93.2684
5150.000000	107.681	-94.3572
5220.000000	107.716	-95.3964
5300.000000	107.797	-96.5989
5380.000000	107.931	-97.9523
5450.000000	108.099	-99.4168
5520.000000	108.311	-101.3173
5600.000000	108.579	-104.2757
5700.000000	108.854	-109.4298
5800.000000	108.889	-115.9182
5900.000000	108.570	-122.4414
6000.000000	107.952	-127.5386
6080.000000	107.353	-130.1917
6150.000000	106.820	-131.5912
6220.000000	106.310	-132.3143
6300.000000	105.774	-132.4620
6400.000000	105.185	-131.7551
6500.000000	104.702	-130.1967
6600.000000	104.358	-127.9958
6700.000000	104.177	-125.4808
6800.000000	104.152	-123.0059
6900.000000	104.264	-120.8251
7000.000000	104.495	-119.0277
7100.000000	104.835	-117.6290
7200.000000	105.281	-116.7036
7300.000000	105.826	-116.3314
7400.000000	106.461	-116.6222
7500.000000	107.192	-117.7166
7620.000000	108.191	-120.5358
7750.000000	109.315	-126.2157
7880.000000	110.317	-135.1355
8000.000000	110.925	-146.2712
8120.000000	111.036	-159.1461
8250.000000	110.529	-172.7704
8380.000000	109.502	176.1018
8500.000000	108.308	168.7447
8620.000000	107.066	163.9106
8750.000000	105.796	160.8721
8850.000000	104.911	159.6312
9000.000000	103.759	158.9601
9120.000000	102.988	159.1194
9250.000000	102.303	159.6935
9380.000000	101.760	160.4622
9500.000000	101.370	161.2075
9620.000000	101.080	161.9251
9750.000000	100.869	162.6285
9880.000000	100.753	163.1615
10000.000000	100.722	163.4119
10150.000000	100.769	163.2570
10300.000000	100.883	162.3910
10440.000000	101.023	160.8611
10600.000000	101.188	158.2231
10750.000000	101.308	154.8969
10900.000000	101.352	150.9386
11060.000000	101.287	146.3950
11200.000000	101.129	142.5258
11380.000000	100.815	138.1936
11500.000000	100.584	135.7852
11720.000000	100.206	131.9225
11800.000000	100.084	130.5687
12060.000000	99.676	126.1588
12200.000000	99.422	123.8947
12410.000000	99.000	120.9808
12500.000000	98.813	119.9696
12650.000000	98.509	118.6244
12800.000000	98.236	117.6791
13150.000000	97.826	116.6854
13200.000000	97.805	116.6534
13400.000000	97.841	116.7070
13600.000000	98.095	116.7938
13800.000000	98.585	116.4778
14000.000000	99.328	115.3381
14300.000000	100.963	110.7504
14500.000000	102.310	104.1346
14750.000000	103.838	89.8048
15000.000000	104.552	69.5339
15250.000000	104.152	48.9218
15500.000000	103.016	33.2285
15750.000000	101.775	22.6602
16000.000000	100.802	15.0115
16250.000000	100.207	8.6615
16500.000000	100.010	2.5526
16750.000000	100.213	-3.9258
17000.000000	100.828	-11.9941
17250.000000	101.660	-23.4323
17500.000000	102.333	-38.6971
17750.000000	102.640	-56.1746
18000.000000	102.619	-74.0654
18250.000000	102.435	-91.3212
18500.000000	102.332	-108.0627
18750.000000	102.459	-125.7946
19000.000000	102.751	-146.4998
19250.000000	102.937	-171.7438
19500.000000	102.644	158.4573
19750.000000	101.609	126.4442
20000.000000	99.808	95.2390
