* Measurement data measured by REW V5.20.5
* Source: Input device not selected, no input selected, L, volume: no control
* Format: 512k Log Swept Sine, 1 sweep at -12.0 dBFS with no timing reference
* Dated: Oct 11, 2023 11:21:42 PM
* REW Settings:
*  C-weighting compensation: Off
*  Target level: 75.0 dB
* Note: ; 
* Measurement: bientoVelvetTWS R
* Smoothing: 1/24 octave
* Frequency Step: 1/48 octave
* Start Frequency: 20.000 Hz
*
* Freq(Hz)	SPL(dB)	Phase(degrees)
20.000000	104.754	16.4573
20.299999	104.758	15.7194
20.600000	104.761	14.9773
20.900000	104.760	14.2385
21.200001	104.755	13.5225
21.400000	104.750	13.0696
21.799999	104.740	12.2269
22.000000	104.737	11.8324
22.400000	104.738	11.0680
22.700001	104.742	10.4857
23.000000	104.745	9.8781
23.299999	104.741	9.2576
23.600000	104.729	8.6524
24.000000	104.702	7.9207
24.299999	104.678	7.4530
24.700001	104.653	6.9223
25.000000	104.642	6.5505
25.400000	104.637	6.0210
25.799999	104.633	5.4065
26.200001	104.619	4.7208
26.500000	104.599	4.1950
26.900000	104.560	3.5230
27.200001	104.527	3.0583
27.600000	104.483	2.4895
28.000000	104.445	1.9518
28.500000	104.407	1.2655
29.000000	104.375	0.5048
29.500000	104.337	-0.3371
30.000000	104.281	-1.1707
30.400000	104.227	-1.7342
30.700001	104.189	-2.0647
31.100000	104.151	-2.4052
31.500000	104.135	-2.7112
32.000000	104.136	-3.1780
32.500000	104.135	-3.7487
33.000000	104.121	-4.2741
33.500000	104.114	-4.6751
34.000000	104.132	-5.1116
34.500000	104.153	-5.8117
35.000000	104.132	-6.7445
35.500000	104.049	-7.5852
36.000000	103.942	-8.0821
36.500000	103.861	-8.3572
37.000000	103.810	-8.7488
37.500000	103.745	-9.3498
38.200001	103.600	-10.0176
38.700001	103.513	-10.1316
39.500000	103.488	-10.4310
40.000000	103.479	-10.9987
40.599998	103.414	-11.6517
41.200001	103.342	-11.8003
41.799999	103.336	-11.6811
42.500000	103.390	-11.8398
43.099998	103.410	-12.3199
43.700001	103.359	-12.8347
44.400002	103.218	-12.8980
45.000000	103.139	-12.2544
45.500000	103.185	-11.9026
46.200001	103.270	-13.1977
46.799999	103.045	-15.4202
47.500000	102.385	-15.3917
48.200001	102.030	-11.4355
48.700001	102.273	-9.0723
49.400002	102.775	-9.8603
50.000000	102.871	-12.7059
50.799999	102.650	-15.0170
51.500000	102.559	-15.5928
52.200001	102.557	-16.5439
53.000000	102.453	-17.5907
53.799999	102.341	-17.6406
54.500000	102.318	-17.5092
55.200001	102.298	-17.6027
56.000000	102.237	-17.7485
57.000000	102.134	-17.9325
58.000000	102.000	-18.1593
59.000000	101.874	-18.2126
60.000000	101.808	-18.3435
60.799999	101.766	-18.6246
61.500000	101.722	-18.8432
62.200001	101.680	-18.9646
63.000000	101.635	-19.0170
64.000000	101.584	-19.0207
65.000000	101.523	-19.1104
66.000000	101.438	-19.2020
67.000000	101.358	-19.3834
68.000000	101.240	-19.5666
69.000000	101.154	-19.1716
70.000000	101.187	-18.8543
71.000000	101.241	-19.0539
72.000000	101.236	-19.6695
73.000000	101.088	-20.0669
74.000000	100.916	-19.4861
75.000000	100.846	-18.8176
76.199997	100.816	-18.5018
77.500000	100.820	-18.9017
78.800003	100.760	-19.5246
80.000000	100.738	-19.6510
81.199997	100.760	-19.9199
82.500000	100.713	-20.4111
83.800003	100.559	-20.5044
85.000000	100.434	-20.0525
86.199997	100.377	-19.9894
87.500000	100.276	-20.3547
88.500000	100.192	-20.5143
90.000000	100.096	-20.4891
91.199997	100.058	-20.2324
92.500000	100.051	-19.8821
93.800003	100.066	-19.6812
95.000000	100.058	-19.8866
96.199997	99.973	-20.1789
97.500000	99.862	-20.1430
98.800003	99.788	-20.0663
100.000000	99.728	-20.0114
101.500000	99.672	-19.8324
103.000000	99.627	-19.6375
104.400002	99.584	-19.4224
106.000000	99.537	-19.1928
107.500000	99.490	-19.0662
109.000000	99.439	-18.9502
110.599998	99.392	-18.8231
112.000000	99.354	-18.7163
113.800003	99.296	-18.5626
115.000000	99.251	-18.4109
117.199997	99.175	-18.0899
118.000000	99.151	-17.9880
120.599998	99.094	-17.7831
122.000000	99.063	-17.7724
124.099998	99.006	-17.7197
125.000000	98.981	-17.6629
126.500000	98.944	-17.5536
128.000000	98.907	-17.4271
131.500000	98.833	-17.1118
132.000000	98.822	-17.0662
134.000000	98.777	-16.8511
136.000000	98.732	-16.6261
138.000000	98.682	-16.3832
140.000000	98.637	-16.1395
143.000000	98.589	-15.9525
145.000000	98.555	-15.8604
147.500000	98.519	-15.6759
150.000000	98.471	-15.4629
152.500000	98.418	-15.1662
155.000000	98.380	-14.8912
157.500000	98.347	-14.6701
160.000000	98.309	-14.4671
162.500000	98.268	-14.2245
165.000000	98.230	-13.9945
167.500000	98.183	-13.8045
170.000000	98.134	-13.6433
172.500000	98.095	-13.4455
175.000000	98.077	-13.1629
177.500000	98.061	-12.9048
180.000000	98.031	-12.6786
182.500000	97.999	-12.4658
185.000000	97.982	-12.2428
187.500000	97.970	-12.0528
190.000000	97.944	-11.8540
192.500000	97.909	-11.6283
195.000000	97.874	-11.3825
197.500000	97.846	-11.1520
200.000000	97.820	-10.9640
203.000000	97.795	-10.7638
206.000000	97.772	-10.5897
209.000000	97.751	-10.3715
212.000000	97.731	-10.1216
214.000000	97.713	-9.9529
218.000000	97.667	-9.6337
220.000000	97.644	-9.4714
224.000000	97.617	-9.1419
227.000000	97.607	-8.9326
230.000000	97.594	-8.7100
233.000000	97.578	-8.4645
236.000000	97.559	-8.2374
240.000000	97.531	-7.9750
243.000000	97.507	-7.7413
247.000000	97.475	-7.3779
250.000000	97.465	-7.1662
254.000000	97.458	-6.9981
258.000000	97.442	-6.7718
262.000000	97.417	-6.5079
265.000000	97.398	-6.3080
269.000000	97.378	-6.0482
272.000000	97.367	-5.8576
276.000000	97.355	-5.6218
280.000000	97.347	-5.3746
285.000000	97.346	-5.0219
290.000000	97.318	-4.7201
295.000000	97.279	-4.4611
300.000000	97.262	-4.2041
304.000000	97.249	-3.9844
307.000000	97.240	-3.7948
311.000000	97.230	-3.5145
315.000000	97.218	-3.2650
320.000000	97.205	-3.0286
325.000000	97.194	-2.7942
330.000000	97.183	-2.5969
335.000000	97.177	-2.3544
340.000000	97.174	-2.0397
345.000000	97.163	-1.7453
350.000000	97.147	-1.4674
355.000000	97.132	-1.2268
360.000000	97.118	-1.0542
365.000000	97.112	-0.8542
370.000000	97.108	-0.5922
375.000000	97.095	-0.3296
382.000000	97.072	0.0161
387.000000	97.059	0.2402
395.000000	97.043	0.5502
400.000000	97.037	0.7270
406.000000	97.027	0.9509
412.000000	97.015	1.2415
418.000000	96.997	1.5424
425.000000	96.976	1.8371
431.000000	96.961	2.0827
437.000000	96.943	2.3284
444.000000	96.930	2.6077
450.000000	96.924	2.8486
455.000000	96.913	3.0375
462.000000	96.894	3.2796
468.000000	96.876	3.5069
475.000000	96.855	3.7938
482.000000	96.840	4.1007
487.000000	96.830	4.2968
494.000000	96.811	4.5566
500.000000	96.794	4.7988
508.000000	96.765	5.1267
515.000000	96.733	5.3719
522.000000	96.700	5.6424
530.000000	96.661	5.9754
538.000000	96.614	6.3236
545.000000	96.570	6.6865
552.000000	96.534	7.1134
560.000000	96.493	7.6542
570.000000	96.440	8.3959
580.000000	96.399	9.1428
590.000000	96.374	9.9325
600.000000	96.365	10.7456
608.000000	96.359	11.3940
615.000000	96.352	11.9371
622.000000	96.342	12.4626
630.000000	96.334	13.0795
640.000000	96.337	13.8637
650.000000	96.349	14.6706
660.000000	96.371	15.4636
670.000000	96.401	16.2297
680.000000	96.430	16.9857
690.000000	96.457	17.7198
700.000000	96.488	18.3843
710.000000	96.522	19.0224
720.000000	96.563	19.6724
730.000000	96.610	20.3606
740.000000	96.654	21.0532
750.000000	96.693	21.6862
762.000000	96.739	22.3622
775.000000	96.794	23.0784
788.000000	96.855	23.8242
800.000000	96.914	24.5335
812.000000	96.976	25.2712
825.000000	97.046	26.0543
838.000000	97.117	26.7489
850.000000	97.181	27.3517
862.000000	97.249	27.9441
875.000000	97.330	28.5891
885.000000	97.396	29.1260
900.000000	97.494	29.9873
912.000000	97.575	30.6591
925.000000	97.670	31.3378
938.000000	97.770	31.9585
950.000000	97.868	32.4877
962.000000	97.972	32.9979
975.000000	98.085	33.5430
988.000000	98.201	34.0479
1000.000000	98.313	34.4875
1015.000000	98.461	35.0046
1030.000000	98.607	35.4268
1044.000000	98.744	35.7373
1060.000000	98.905	36.0186
1075.000000	99.058	36.2341
1090.000000	99.207	36.4261
1106.000000	99.358	36.5808
1120.000000	99.485	36.6483
1138.000000	99.648	36.6437
1150.000000	99.755	36.5811
1172.000000	99.942	36.3656
1180.000000	100.006	36.2653
1206.000000	100.197	35.9279
1220.000000	100.292	35.7573
1241.000000	100.429	35.5120
1250.000000	100.486	35.3898
1265.000000	100.576	35.1381
1280.000000	100.661	34.8283
1315.000000	100.840	34.0607
1320.000000	100.864	33.9600
1340.000000	100.949	33.5902
1360.000000	101.018	33.2551
1380.000000	101.076	32.9242
1400.000000	101.130	32.5662
1430.000000	101.213	32.0030
1450.000000	101.259	31.6505
1475.000000	101.304	31.2698
1500.000000	101.338	30.9867
1525.000000	101.367	30.8221
1550.000000	101.393	30.6566
1575.000000	101.421	30.4502
1600.000000	101.453	30.2467
1625.000000	101.485	30.1222
1650.000000	101.511	30.1195
1675.000000	101.528	30.2197
1700.000000	101.545	30.3538
1725.000000	101.574	30.4679
1750.000000	101.614	30.5804
1775.000000	101.658	30.7085
1800.000000	101.702	30.8746
1825.000000	101.744	31.1112
1850.000000	101.783	31.4279
1875.000000	101.826	31.8146
1900.000000	101.882	32.2341
1925.000000	101.954	32.6438
1950.000000	102.044	33.0155
1975.000000	102.147	33.3594
2000.000000	102.258	33.7156
2030.000000	102.396	34.1920
2060.000000	102.548	34.6642
2090.000000	102.719	35.0487
2120.000000	102.908	35.3119
2140.000000	103.043	35.4161
2180.000000	103.334	35.4678
2200.000000	103.485	35.4127
2240.000000	103.786	35.1384
2270.000000	104.007	34.8144
2300.000000	104.225	34.4041
2330.000000	104.443	33.8888
2360.000000	104.665	33.2301
2400.000000	104.964	32.1116
2430.000000	105.183	31.1299
2470.000000	105.461	29.7069
2500.000000	105.652	28.5722
2540.000000	105.881	26.9436
2580.000000	106.088	25.1664
2620.000000	106.281	23.2404
2650.000000	106.416	21.7186
2690.000000	106.575	19.6281
2720.000000	106.675	18.0372
2760.000000	106.780	15.9156
2800.000000	106.855	13.8292
2850.000000	106.913	11.2868
2900.000000	106.949	8.7696
2950.000000	106.974	6.2487
3000.000000	106.978	3.7493
3040.000000	106.956	1.8011
3070.000000	106.924	0.3865
3110.000000	106.864	-1.4407
3150.000000	106.789	-3.2254
3200.000000	106.680	-5.4172
3250.000000	106.563	-7.5264
3300.000000	106.433	-9.5041
3350.000000	106.284	-11.3305
3400.000000	106.112	-12.9927
3450.000000	105.925	-14.4160
3500.000000	105.743	-15.5691
3550.000000	105.584	-16.5489
3600.000000	105.453	-17.4591
3650.000000	105.347	-18.3427
3700.000000	105.258	-19.2002
3750.000000	105.181	-20.0178
3820.000000	105.092	-21.1384
3870.000000	105.048	-21.9880
3950.000000	105.019	-23.4888
4000.000000	105.022	-24.5205
4060.000000	105.038	-25.8969
4120.000000	105.059	-27.4334
4180.000000	105.074	-29.1113
4250.000000	105.077	-31.2317
4310.000000	105.065	-33.1883
4370.000000	105.039	-35.2543
4440.000000	104.994	-37.7671
4500.000000	104.936	-39.9736
4550.000000	104.865	-41.8114
4620.000000	104.726	-44.3261
4680.000000	104.573	-46.3979
4750.000000	104.366	-48.7031
4820.000000	104.144	-50.8768
4870.000000	103.981	-52.3219
4940.000000	103.749	-54.1480
5000.000000	103.553	-55.5343
5080.000000	103.301	-57.1604
5150.000000	103.089	-58.4015
5220.000000	102.884	-59.4909
5300.000000	102.669	-60.5885
5380.000000	102.487	-61.5756
5450.000000	102.361	-62.3742
5520.000000	102.262	-63.1323
5600.000000	102.169	-63.9704
5700.000000	102.080	-64.9939
5800.000000	102.037	-66.0100
5900.000000	102.055	-67.0974
6000.000000	102.143	-68.3531
6080.000000	102.264	-69.5356
6150.000000	102.401	-70.7538
6220.000000	102.557	-72.1885
6300.000000	102.751	-74.1070
6400.000000	103.004	-76.9325
6500.000000	103.255	-80.2325
6600.000000	103.489	-83.9909
6700.000000	103.688	-88.1578
6800.000000	103.840	-92.5941
6900.000000	103.936	-97.0865
7000.000000	103.969	-101.4179
7100.000000	103.960	-105.4401
7200.000000	103.937	-109.1090
7300.000000	103.927	-112.4495
7400.000000	103.950	-115.4744
7500.000000	104.030	-118.1611
7620.000000	104.235	-120.9809
7750.000000	104.620	-123.8002
7880.000000	105.207	-126.7824
8000.000000	105.955	-130.1078
8120.000000	106.903	-134.4785
8250.000000	108.118	-141.1043
8380.000000	109.397	-150.5523
8500.000000	110.450	-162.3601
8620.000000	111.180	-176.9911
8750.000000	111.448	-194.7866
8850.000000	111.268	-208.6959
9000.000000	110.472	-228.5544
9120.000000	109.439	-242.9908
9250.000000	107.936	-256.3392
9380.000000	106.107	-266.3827
9500.000000	104.274	-272.4196
9620.000000	102.466	-275.7030
9750.000000	100.681	-276.8602
9880.000000	99.150	-276.2010
10000.000000	97.984	-274.4907
10150.000000	96.850	-271.4547
10300.000000	96.061	-267.8036
10440.000000	95.654	-264.3248
10600.000000	95.555	-261.2814
10750.000000	95.672	-260.1034
10900.000000	95.820	-260.5304
11060.000000	95.931	-262.0644
11200.000000	95.993	-263.9832
11380.000000	96.007	-267.2692
11500.000000	95.942	-269.9261
11720.000000	95.596	-275.1624
11800.000000	95.399	-276.9818
12060.000000	94.571	-281.7549
12200.000000	94.066	-283.3734
12410.000000	93.312	-284.5889
12500.000000	93.006	-284.7238
12650.000000	92.537	-284.4668
12800.000000	92.139	-283.6551
13150.000000	91.588	-280.4718
13200.000000	91.557	-279.9854
13400.000000	91.543	-278.2538
13600.000000	91.680	-277.0044
13800.000000	91.937	-276.3245
14000.000000	92.297	-276.2103
14300.000000	93.041	-277.0216
14500.000000	93.695	-278.3638
14750.000000	94.688	-281.5950
15000.000000	95.794	-287.3792
15250.000000	96.841	-296.0956
15500.000000	97.646	-307.2472
15750.000000	98.126	-319.7337
16000.000000	98.280	-332.4304
16250.000000	98.218	-344.0887
16500.000000	98.204	-354.2646
16750.000000	98.471	-363.8076
17000.000000	99.127	-374.2443
17250.000000	100.098	-387.5228
17500.000000	101.081	-405.5149
17750.000000	101.630	-428.4959
18000.000000	101.464	-453.8803
18250.000000	100.677	-478.3241
18500.000000	99.611	-500.9512
18750.000000	98.578	-523.2938
19000.000000	97.636	-547.8157
19250.000000	96.486	-576.0995
19500.000000	94.695	-606.4924
19750.000000	92.062	-634.9675
20000.000000	88.733	-659.1833
