* Measurement data measured by REW V5.20.5
* Source: Input device not selected, no input selected, L, volume: no control
* Format: 512k Log Swept Sine, 1 sweep at -12.0 dBFS with no timing reference
* Dated: Jun 6, 2023 7:21:09 PM
* REW Settings:
*  C-weighting compensation: Off
*  Target level: 75.0 dB
* Note: ; 
* Measurement: cosmos5 L
* Smoothing: 1/24 octave
* Frequency Step: 1/48 octave
* Start Frequency: 20.000 Hz
*
* Freq(Hz)	SPL(dB)	Phase(degrees)
20.000000	109.457	25.9576
20.299999	109.479	25.2723
20.600000	109.498	24.6502
20.900000	109.518	24.0934
21.200001	109.540	23.5940
21.400000	109.556	23.2845
21.799999	109.591	22.7117
22.000000	109.608	22.4478
22.400000	109.643	21.9783
22.700001	109.672	21.6960
23.000000	109.707	21.4778
23.299999	109.756	21.2871
23.600000	109.822	21.0591
24.000000	109.925	20.5774
24.299999	109.999	20.0190
24.700001	110.066	19.0366
25.000000	110.079	18.2314
25.400000	110.044	17.2745
25.799999	109.977	16.6476
26.200001	109.917	16.3738
26.500000	109.898	16.2932
26.900000	109.908	16.1641
27.200001	109.932	15.9521
27.600000	109.961	15.4949
28.000000	109.972	14.9459
28.500000	109.965	14.3352
29.000000	109.967	13.8579
29.500000	109.994	13.3455
30.000000	110.027	12.6312
30.400000	110.037	11.9382
30.700001	110.028	11.4099
31.100000	110.001	10.7807
31.500000	109.969	10.2794
32.000000	109.939	9.8002
32.500000	109.935	9.3611
33.000000	109.948	8.8340
33.500000	109.963	8.1799
34.000000	109.962	7.4695
34.500000	109.943	6.8602
35.000000	109.924	6.4860
35.500000	109.936	6.3266
36.000000	109.997	6.1758
36.500000	110.085	5.8255
37.000000	110.160	5.2614
37.500000	110.203	4.6534
38.200001	110.228	3.9748
38.700001	110.236	3.5732
39.500000	110.213	2.9280
40.000000	110.169	2.5753
40.599998	110.091	2.2594
41.200001	110.000	2.1334
41.799999	109.944	2.2445
42.500000	110.010	2.1160
43.099998	110.126	0.8696
43.700001	110.124	-1.3810
44.400002	109.888	-3.6160
45.000000	109.640	-3.9906
45.500000	109.560	-3.4493
46.200001	109.702	-2.5757
46.799999	109.978	-2.4855
47.500000	110.318	-3.5239
48.200001	110.496	-5.4634
48.700001	110.471	-6.6396
49.400002	110.328	-6.9833
50.000000	110.263	-6.3245
50.799999	110.296	-5.5881
51.500000	110.304	-5.5150
52.200001	110.254	-5.5582
53.000000	110.184	-5.6375
53.799999	110.126	-5.9468
54.500000	110.083	-6.4391
55.200001	110.046	-7.0294
56.000000	110.035	-7.6685
57.000000	110.092	-8.6399
58.000000	110.129	-9.8018
59.000000	110.130	-10.5161
60.000000	110.143	-10.9149
60.799999	110.147	-11.1821
61.500000	110.146	-11.4124
62.200001	110.141	-11.6919
63.000000	110.131	-12.0662
64.000000	110.124	-12.5544
65.000000	110.147	-13.0576
66.000000	110.208	-13.6581
67.000000	110.273	-14.4801
68.000000	110.290	-15.3187
69.000000	110.267	-15.8936
70.000000	110.225	-16.2640
71.000000	110.173	-16.4980
72.000000	110.134	-16.7178
73.000000	110.105	-17.0991
74.000000	110.079	-17.5760
75.000000	110.067	-18.1326
76.199997	110.051	-18.8276
77.500000	110.041	-19.4142
78.800003	110.042	-19.8740
80.000000	110.055	-20.3182
81.199997	110.045	-20.9072
82.500000	110.015	-21.4423
83.800003	110.000	-21.9644
85.000000	110.003	-22.4906
86.199997	110.010	-23.1299
87.500000	109.994	-23.8166
88.500000	109.970	-24.2274
90.000000	109.942	-24.6740
91.199997	109.941	-25.0538
92.500000	109.951	-25.6744
93.800003	109.947	-26.4429
95.000000	109.929	-27.0710
96.199997	109.918	-27.5414
97.500000	109.915	-27.9399
98.800003	109.917	-28.2656
100.000000	109.921	-28.6866
101.500000	109.888	-29.4628
103.000000	109.826	-30.2092
104.400002	109.792	-30.8829
106.000000	109.780	-31.6304
107.500000	109.793	-32.2070
109.000000	109.805	-32.7349
110.599998	109.793	-33.2451
112.000000	109.766	-33.7090
113.800003	109.723	-34.4088
115.000000	109.698	-34.9149
117.199997	109.678	-35.7429
118.000000	109.681	-36.0370
120.599998	109.666	-36.9857
122.000000	109.645	-37.4464
124.099998	109.610	-38.2043
125.000000	109.597	-38.5398
126.500000	109.583	-39.1201
128.000000	109.570	-39.7143
131.500000	109.536	-40.9313
132.000000	109.533	-41.1075
134.000000	109.520	-41.8921
136.000000	109.489	-42.7061
138.000000	109.456	-43.3864
140.000000	109.427	-44.0203
143.000000	109.380	-44.9576
145.000000	109.352	-45.6064
147.500000	109.319	-46.4409
150.000000	109.281	-47.2609
152.500000	109.239	-48.0366
155.000000	109.199	-48.8285
157.500000	109.166	-49.6828
160.000000	109.134	-50.5411
162.500000	109.102	-51.3595
165.000000	109.065	-52.1461
167.500000	109.028	-52.9255
170.000000	108.992	-53.6908
172.500000	108.958	-54.4308
175.000000	108.919	-55.1871
177.500000	108.874	-55.9518
180.000000	108.833	-56.7076
182.500000	108.797	-57.4517
185.000000	108.761	-58.1851
187.500000	108.722	-58.9174
190.000000	108.680	-59.6543
192.500000	108.640	-60.3910
195.000000	108.600	-61.1149
197.500000	108.562	-61.8066
200.000000	108.523	-62.4746
203.000000	108.473	-63.2693
206.000000	108.423	-64.0731
209.000000	108.373	-64.9084
212.000000	108.323	-65.7583
214.000000	108.290	-66.3148
218.000000	108.225	-67.3832
220.000000	108.192	-67.9001
224.000000	108.123	-68.8962
227.000000	108.071	-69.6266
230.000000	108.017	-70.3719
233.000000	107.961	-71.1462
236.000000	107.906	-71.9291
240.000000	107.842	-72.8964
243.000000	107.790	-73.5420
247.000000	107.702	-74.3491
250.000000	107.647	-75.0195
254.000000	107.586	-76.0040
258.000000	107.521	-76.9404
262.000000	107.456	-77.8486
265.000000	107.408	-78.5211
269.000000	107.343	-79.4080
272.000000	107.292	-80.0472
276.000000	107.221	-80.8716
280.000000	107.150	-81.7045
285.000000	107.066	-82.7444
290.000000	106.982	-83.7223
295.000000	106.894	-84.6501
300.000000	106.809	-85.5880
304.000000	106.742	-86.3409
307.000000	106.691	-86.8921
311.000000	106.623	-87.5912
315.000000	106.555	-88.2658
320.000000	106.470	-89.1005
325.000000	106.385	-89.9407
330.000000	106.303	-90.7673
335.000000	106.222	-91.5681
340.000000	106.141	-92.3491
345.000000	106.061	-93.1011
350.000000	105.982	-93.8376
355.000000	105.906	-94.5907
360.000000	105.829	-95.3123
365.000000	105.750	-95.9568
370.000000	105.675	-96.5767
375.000000	105.599	-97.1980
382.000000	105.499	-98.0823
387.000000	105.429	-98.6921
395.000000	105.311	-99.6739
400.000000	105.237	-100.2904
406.000000	105.151	-100.9590
412.000000	105.071	-101.5739
418.000000	104.997	-102.1590
425.000000	104.910	-102.8133
431.000000	104.829	-103.4248
437.000000	104.748	-104.0095
444.000000	104.656	-104.6222
450.000000	104.583	-105.1400
455.000000	104.527	-105.5593
462.000000	104.451	-106.1084
468.000000	104.383	-106.5509
475.000000	104.303	-107.0576
482.000000	104.223	-107.5344
487.000000	104.168	-107.8555
494.000000	104.095	-108.2931
500.000000	104.037	-108.6492
508.000000	103.967	-109.0831
515.000000	103.905	-109.4370
522.000000	103.845	-109.7853
530.000000	103.777	-110.1583
538.000000	103.712	-110.5253
545.000000	103.658	-110.8323
552.000000	103.610	-111.1133
560.000000	103.564	-111.4145
570.000000	103.507	-111.7147
580.000000	103.458	-112.0007
590.000000	103.412	-112.3243
600.000000	103.358	-112.6682
608.000000	103.321	-112.9318
615.000000	103.293	-113.1371
622.000000	103.269	-113.3083
630.000000	103.246	-113.4606
640.000000	103.221	-113.6162
650.000000	103.195	-113.7742
660.000000	103.171	-113.9487
670.000000	103.150	-114.1279
680.000000	103.133	-114.2776
690.000000	103.121	-114.3577
700.000000	103.114	-114.3892
710.000000	103.112	-114.3973
720.000000	103.115	-114.4327
730.000000	103.121	-114.5100
740.000000	103.131	-114.6001
750.000000	103.146	-114.6685
762.000000	103.173	-114.6985
775.000000	103.208	-114.6710
788.000000	103.246	-114.6234
800.000000	103.288	-114.5703
812.000000	103.337	-114.5313
825.000000	103.398	-114.5038
838.000000	103.464	-114.5029
850.000000	103.532	-114.4934
862.000000	103.603	-114.4388
875.000000	103.686	-114.3698
885.000000	103.754	-114.3230
900.000000	103.867	-114.2857
912.000000	103.965	-114.2939
925.000000	104.077	-114.3351
938.000000	104.196	-114.3854
950.000000	104.310	-114.4378
962.000000	104.428	-114.5005
975.000000	104.559	-114.5933
988.000000	104.692	-114.7202
1000.000000	104.817	-114.8774
1015.000000	104.981	-115.1318
1030.000000	105.148	-115.4299
1044.000000	105.307	-115.7524
1060.000000	105.490	-116.1866
1075.000000	105.662	-116.6500
1090.000000	105.835	-117.1709
1106.000000	106.017	-117.7960
1120.000000	106.175	-118.3935
1138.000000	106.374	-119.2225
1150.000000	106.506	-119.8068
1172.000000	106.740	-120.9429
1180.000000	106.822	-121.3761
1206.000000	107.075	-122.8465
1220.000000	107.203	-123.6743
1241.000000	107.383	-124.9446
1250.000000	107.457	-125.4938
1265.000000	107.578	-126.4155
1280.000000	107.694	-127.3439
1315.000000	107.941	-129.5094
1320.000000	107.974	-129.8198
1340.000000	108.104	-131.0662
1360.000000	108.224	-132.2996
1380.000000	108.336	-133.4941
1400.000000	108.440	-134.6559
1430.000000	108.589	-136.3703
1450.000000	108.685	-137.4933
1475.000000	108.802	-138.8663
1500.000000	108.915	-140.1985
1525.000000	109.020	-141.4984
1550.000000	109.121	-142.7588
1575.000000	109.221	-143.9916
1600.000000	109.318	-145.2037
1625.000000	109.416	-146.3945
1650.000000	109.514	-147.5530
1675.000000	109.614	-148.6890
1700.000000	109.712	-149.7963
1725.000000	109.810	-150.8773
1750.000000	109.908	-151.9518
1775.000000	110.009	-153.0316
1800.000000	110.113	-154.1195
1825.000000	110.219	-155.2104
1850.000000	110.325	-156.3005
1875.000000	110.431	-157.3832
1900.000000	110.536	-158.4581
1925.000000	110.641	-159.5239
1950.000000	110.748	-160.5909
1975.000000	110.857	-161.6761
2000.000000	110.971	-162.7893
2030.000000	111.112	-164.1605
2060.000000	111.253	-165.5572
2090.000000	111.393	-166.9752
2120.000000	111.530	-168.4238
2140.000000	111.622	-169.4155
2180.000000	111.805	-171.4722
2200.000000	111.897	-172.5369
2240.000000	112.079	-174.7285
2270.000000	112.212	-176.4265
2300.000000	112.338	-178.1655
2330.000000	112.457	-179.9358
2360.000000	112.572	178.2527
2400.000000	112.717	175.7646
2430.000000	112.817	173.8407
2470.000000	112.939	171.1932
2500.000000	113.021	169.1584
2540.000000	113.115	166.4010
2580.000000	113.192	163.6178
2620.000000	113.248	160.8341
2650.000000	113.277	158.7566
2690.000000	113.296	156.0042
2720.000000	113.298	153.9548
2760.000000	113.286	151.2458
2800.000000	113.260	148.5726
2850.000000	113.207	145.3289
2900.000000	113.135	142.2381
2950.000000	113.047	139.3098
3000.000000	112.946	136.5535
3040.000000	112.861	134.4678
3070.000000	112.797	132.9688
3110.000000	112.713	131.0553
3150.000000	112.630	129.2354
3200.000000	112.531	127.0867
3250.000000	112.443	125.0676
3300.000000	112.368	123.1402
3350.000000	112.308	121.2512
3400.000000	112.259	119.3827
3450.000000	112.218	117.5340
3500.000000	112.188	115.7177
3550.000000	112.171	113.9510
3600.000000	112.167	112.2194
3650.000000	112.179	110.4860
3700.000000	112.209	108.7325
3750.000000	112.258	106.9316
3820.000000	112.356	104.2587
3870.000000	112.446	102.2081
3950.000000	112.617	98.6511
4000.000000	112.742	96.2246
4060.000000	112.902	93.0650
4120.000000	113.062	89.5762
4180.000000	113.213	85.7045
4250.000000	113.365	80.6697
4310.000000	113.458	75.8864
4370.000000	113.495	70.6854
4440.000000	113.438	64.1722
4500.000000	113.281	58.3414
4550.000000	113.061	53.4599
4620.000000	112.618	46.8769
4680.000000	112.128	41.7307
4750.000000	111.467	36.5360
4820.000000	110.753	32.2394
4870.000000	110.230	29.6691
4940.000000	109.499	26.6959
5000.000000	108.886	24.6653
5080.000000	108.098	22.5858
5150.000000	107.441	21.2635
5220.000000	106.821	20.3448
5300.000000	106.163	19.7197
5380.000000	105.558	19.4519
5450.000000	105.068	19.4587
5520.000000	104.614	19.6762
5600.000000	104.138	20.2014
5700.000000	103.619	21.3199
5800.000000	103.213	22.8567
5900.000000	102.948	24.3616
6000.000000	102.754	25.3525
6080.000000	102.586	26.0090
6150.000000	102.441	26.7607
6220.000000	102.323	27.7283
6300.000000	102.237	29.0244
6400.000000	102.202	30.7736
6500.000000	102.248	32.5548
6600.000000	102.369	34.2894
6700.000000	102.563	35.9323
6800.000000	102.833	37.4869
6900.000000	103.175	38.9337
7000.000000	103.587	40.2433
7100.000000	104.075	41.3564
7200.000000	104.641	42.1913
7300.000000	105.282	42.6548
7400.000000	105.993	42.7449
7500.000000	106.799	42.4855
7620.000000	107.928	41.4307
7750.000000	109.326	38.6331
7880.000000	110.790	33.2468
8000.000000	112.038	25.4489
8120.000000	112.999	14.9641
8250.000000	113.521	1.6424
8380.000000	113.463	-11.5915
8500.000000	113.014	-22.0483
8620.000000	112.366	-30.2697
8750.000000	111.614	-37.0027
8850.000000	111.070	-41.1409
9000.000000	110.329	-46.4957
9120.000000	109.761	-50.4223
9250.000000	109.112	-54.2725
9380.000000	108.395	-57.3512
9500.000000	107.692	-59.1860
9620.000000	107.010	-59.9397
9750.000000	106.363	-59.6757
9880.000000	105.868	-58.6296
10000.000000	105.561	-57.3229
10150.000000	105.358	-55.6633
10300.000000	105.320	-54.2719
10440.000000	105.407	-53.3543
10600.000000	105.621	-52.9368
10750.000000	105.891	-53.3273
10900.000000	106.192	-54.5457
11060.000000	106.503	-56.7831
11200.000000	106.723	-59.5148
11380.000000	106.879	-63.9001
11500.000000	106.885	-67.1289
11720.000000	106.681	-72.9978
11800.000000	106.541	-74.9714
12060.000000	105.905	-80.2802
12200.000000	105.493	-82.2675
12410.000000	104.857	-84.0321
12500.000000	104.594	-84.3771
12650.000000	104.189	-84.4808
12800.000000	103.851	-84.0956
13150.000000	103.398	-82.2728
13200.000000	103.375	-81.9948
13400.000000	103.382	-80.9796
13600.000000	103.552	-80.1887
13800.000000	103.927	-79.9019
14000.000000	104.527	-80.8947
14300.000000	105.708	-87.4740
14500.000000	106.308	-97.4575
14750.000000	106.015	-115.1046
15000.000000	104.120	-128.2543
15250.000000	101.594	-130.2959
15500.000000	99.523	-127.1077
15750.000000	98.161	-117.9865
16000.000000	98.488	-109.5256
16250.000000	99.425	-110.3120
16500.000000	99.537	-117.6286
16750.000000	98.736	-123.3602
17000.000000	97.617	-124.5247
17250.000000	96.680	-122.3162
17500.000000	96.101	-118.3998
17750.000000	95.887	-113.5381
18000.000000	96.219	-107.1987
18250.000000	98.046	-99.0681
18500.000000	101.408	-96.5746
18750.000000	104.152	-111.6263
19000.000000	105.107	-141.0901
19250.000000	104.210	-171.5123
19500.000000	101.955	165.3516
19750.000000	98.965	149.4875
20000.000000	95.499	140.7126
