* Measurement data measured by REW V5.20.9
* Source: Input device not selected, no input selected, R, volume: no control
* Format: 512k Log Swept Sine, 1 sweep at -12.0 dBFS with no timing reference
* Dated: Oct 1, 2023 6:48:06 PM
* REW Settings:
*  C-weighting compensation: Off
*  Target level: 75.0 dB
* Note: ; 
* Measurement: karas2 R
* Smoothing: 1/24 octave
* Frequency Step: 1/48 octave
* Start Frequency: 20.000 Hz
*
* Freq(Hz)	SPL(dB)	Phase(degrees)
20.000000	107.042	-116.3338
20.299999	107.079	-117.1022
20.600000	107.124	-117.6523
20.900000	107.203	-118.0263
21.200001	107.337	-118.4333
21.400000	107.446	-118.8897
21.799999	107.656	-120.3868
22.000000	107.724	-121.3996
22.400000	107.723	-123.5889
22.700001	107.594	-124.8056
23.000000	107.399	-125.1022
23.299999	107.239	-124.3523
23.600000	107.207	-122.9080
24.000000	107.435	-120.9632
24.299999	107.743	-120.3760
24.700001	108.153	-121.2267
25.000000	108.352	-122.7484
25.400000	108.427	-124.9943
25.799999	108.364	-126.4890
26.200001	108.325	-127.0336
26.500000	108.384	-127.2562
26.900000	108.573	-128.0566
27.200001	108.729	-129.3534
27.600000	108.854	-131.8899
28.000000	108.829	-134.6385
28.500000	108.643	-137.2011
29.000000	108.477	-138.3833
29.500000	108.472	-138.9132
30.000000	108.595	-139.7345
30.400000	108.707	-140.7299
30.700001	108.774	-141.5303
31.100000	108.848	-142.4533
31.500000	108.929	-143.1473
32.000000	109.075	-143.9120
32.500000	109.248	-145.0088
33.000000	109.359	-146.6516
33.500000	109.329	-148.4931
34.000000	109.149	-149.7927
34.500000	108.908	-150.0386
35.000000	108.727	-149.4388
35.500000	108.659	-148.7444
36.000000	108.650	-148.4637
36.500000	108.642	-148.4736
37.000000	108.658	-148.4654
37.500000	108.767	-148.5994
38.200001	109.054	-150.1891
38.700001	109.206	-152.6944
39.500000	109.092	-157.2389
40.000000	108.850	-158.8348
40.599998	108.617	-158.8952
41.200001	108.646	-158.0746
41.799999	108.867	-157.8483
42.500000	109.107	-158.6823
43.099998	109.210	-159.5165
43.700001	109.271	-160.0360
44.400002	109.333	-160.4804
45.000000	109.366	-160.9135
45.500000	109.375	-161.2882
46.200001	109.370	-161.8458
46.799999	109.353	-162.4218
47.500000	109.314	-163.1508
48.200001	109.274	-163.8145
48.700001	109.261	-164.2603
49.400002	109.270	-164.9476
50.000000	109.290	-165.6444
50.799999	109.300	-166.5983
51.500000	109.297	-167.2051
52.200001	109.315	-167.5894
53.000000	109.363	-168.1116
53.799999	109.380	-168.7930
54.500000	109.363	-169.2643
55.200001	109.355	-169.6131
56.000000	109.370	-170.1140
57.000000	109.393	-171.1139
58.000000	109.370	-172.3021
59.000000	109.329	-173.1057
60.000000	109.344	-173.6532
60.799999	109.370	-174.1434
61.500000	109.382	-174.5361
62.200001	109.387	-174.8506
63.000000	109.387	-175.1673
64.000000	109.374	-175.5311
65.000000	109.384	-175.9503
66.000000	109.397	-177.0644
67.000000	109.281	-178.4497
68.000000	109.147	-179.0298
69.000000	109.120	-179.5600
70.000000	109.118	179.7452
71.000000	109.137	179.0268
72.000000	109.117	178.3693
73.000000	109.107	178.3367
74.000000	109.189	178.2814
75.000000	109.263	177.6476
76.199997	109.263	176.7394
77.500000	109.228	175.8882
78.800003	109.158	175.1054
80.000000	109.091	174.7278
81.199997	109.065	174.4307
82.500000	109.046	173.9249
83.800003	109.007	173.2730
85.000000	108.961	172.5901
86.199997	108.909	171.7382
87.500000	108.830	170.9683
88.500000	108.805	170.5787
90.000000	108.797	169.8761
91.199997	108.763	169.4342
92.500000	108.717	169.1760
93.800003	108.678	168.8376
95.000000	108.621	168.3121
96.199997	108.562	167.8292
97.500000	108.549	167.3763
98.800003	108.628	166.7592
100.000000	108.678	165.6302
101.500000	108.590	164.6448
103.000000	108.477	164.6571
104.400002	108.447	164.8538
106.000000	108.421	164.4046
107.500000	108.389	163.7797
109.000000	108.347	162.8490
110.599998	108.250	162.2332
112.000000	108.209	162.1733
113.800003	108.215	161.8520
115.000000	108.194	161.3368
117.199997	108.014	160.3825
118.000000	107.943	160.2904
120.599998	107.823	159.4476
122.000000	107.778	158.9917
124.099998	107.780	158.3094
125.000000	107.779	158.0222
126.500000	107.744	157.5356
128.000000	107.654	157.2652
131.500000	107.509	156.2028
132.000000	107.479	155.9879
134.000000	107.393	155.3713
136.000000	107.330	154.9008
138.000000	107.267	154.5447
140.000000	107.199	154.0005
143.000000	107.101	152.9301
145.000000	107.043	152.3411
147.500000	106.945	151.7569
150.000000	106.821	151.4547
152.500000	106.715	151.1449
155.000000	106.614	150.7144
157.500000	106.504	150.2356
160.000000	106.394	149.7753
162.500000	106.273	149.3182
165.000000	106.142	148.9966
167.500000	106.025	148.8261
170.000000	105.947	148.6248
172.500000	105.894	148.1838
175.000000	105.817	147.5777
177.500000	105.706	147.4237
180.000000	105.614	147.4023
182.500000	105.498	147.1444
185.000000	105.360	146.8581
187.500000	105.243	146.6707
190.000000	105.143	146.4640
192.500000	105.032	146.2473
195.000000	104.919	146.1546
197.500000	104.816	146.1582
200.000000	104.721	146.1762
203.000000	104.611	146.0659
206.000000	104.486	145.8980
209.000000	104.367	145.7925
212.000000	104.259	145.7000
214.000000	104.189	145.6908
218.000000	104.045	145.7823
220.000000	103.975	145.9056
224.000000	103.821	146.2837
227.000000	103.678	146.1433
230.000000	103.568	145.5075
233.000000	103.530	145.3142
236.000000	103.490	145.8668
240.000000	103.311	146.5714
243.000000	103.185	146.6010
247.000000	103.055	146.7355
250.000000	102.964	147.0293
254.000000	102.842	147.3281
258.000000	102.711	147.6014
262.000000	102.579	147.9161
265.000000	102.498	148.2233
269.000000	102.416	148.7557
272.000000	102.353	149.2101
276.000000	102.270	149.6934
280.000000	102.186	150.1094
285.000000	102.056	150.5789
290.000000	101.954	150.7610
295.000000	101.865	151.3481
300.000000	101.759	151.7800
304.000000	101.692	152.0646
307.000000	101.648	152.4182
311.000000	101.595	152.9575
315.000000	101.529	153.5165
320.000000	101.434	154.3500
325.000000	101.348	155.3251
330.000000	101.305	156.1507
335.000000	101.284	156.8104
340.000000	101.261	157.2897
345.000000	101.232	157.7823
350.000000	101.185	158.1554
355.000000	101.163	158.4134
360.000000	101.152	158.8096
365.000000	101.140	159.2230
370.000000	101.140	159.6148
375.000000	101.139	160.0633
382.000000	101.132	160.6851
387.000000	101.122	161.1662
395.000000	101.095	161.8400
400.000000	101.069	162.2643
406.000000	101.042	162.7607
412.000000	101.029	163.1240
418.000000	101.020	163.4062
425.000000	101.029	163.8494
431.000000	101.042	164.2623
437.000000	101.056	164.4925
444.000000	101.071	164.6783
450.000000	101.063	164.9459
455.000000	101.052	165.2880
462.000000	101.042	165.8259
468.000000	101.041	166.1918
475.000000	101.028	166.6008
482.000000	101.007	167.0604
487.000000	101.010	167.3640
494.000000	101.029	167.6742
500.000000	101.035	167.9202
508.000000	101.019	168.3429
515.000000	101.010	168.6786
522.000000	101.048	168.9113
530.000000	101.092	169.2506
538.000000	101.116	169.7508
545.000000	101.154	170.1720
552.000000	101.189	170.4590
560.000000	101.217	170.5825
570.000000	101.260	170.5797
580.000000	101.286	170.7165
590.000000	101.298	170.9587
600.000000	101.306	171.2860
608.000000	101.300	171.5088
615.000000	101.306	171.6751
622.000000	101.312	171.8596
630.000000	101.315	172.0937
640.000000	101.314	172.3381
650.000000	101.325	172.5561
660.000000	101.334	172.7307
670.000000	101.352	172.8957
680.000000	101.382	173.1420
690.000000	101.390	173.5159
700.000000	101.387	173.9463
710.000000	101.390	174.2447
720.000000	101.395	174.4262
730.000000	101.404	174.6395
740.000000	101.426	174.9459
750.000000	101.452	175.3186
762.000000	101.487	175.6744
775.000000	101.531	175.9957
788.000000	101.564	176.4996
800.000000	101.605	176.8323
812.000000	101.654	177.1303
825.000000	101.701	177.5452
838.000000	101.747	177.9424
850.000000	101.784	178.3162
862.000000	101.815	178.7095
875.000000	101.865	179.1682
885.000000	101.907	179.5556
900.000000	101.969	-179.8996
912.000000	102.037	-179.5634
925.000000	102.117	-179.2485
938.000000	102.205	-178.9631
950.000000	102.296	-178.6582
962.000000	102.390	-178.3164
975.000000	102.494	-177.9817
988.000000	102.601	-177.7079
1000.000000	102.705	-177.4826
1015.000000	102.830	-177.1894
1030.000000	102.953	-176.8843
1044.000000	103.067	-176.6663
1060.000000	103.202	-176.5589
1075.000000	103.341	-176.4973
1090.000000	103.482	-176.4710
1106.000000	103.627	-176.4913
1120.000000	103.754	-176.5173
1138.000000	103.931	-176.6405
1150.000000	104.051	-176.8178
1172.000000	104.254	-177.1889
1180.000000	104.323	-177.3291
1206.000000	104.552	-177.8752
1220.000000	104.677	-178.2078
1241.000000	104.853	-178.7705
1250.000000	104.927	-179.0187
1265.000000	105.044	-179.4507
1280.000000	105.154	-179.9325
1315.000000	105.411	178.8759
1320.000000	105.445	178.6923
1340.000000	105.572	177.8941
1360.000000	105.693	177.0503
1380.000000	105.805	176.2281
1400.000000	105.896	175.4509
1430.000000	106.024	174.3206
1450.000000	106.105	173.5652
1475.000000	106.204	172.5740
1500.000000	106.305	171.5840
1525.000000	106.400	170.6136
1550.000000	106.488	169.6859
1575.000000	106.571	168.8191
1600.000000	106.642	167.9507
1625.000000	106.706	167.1168
1650.000000	106.767	166.3244
1675.000000	106.835	165.5552
1700.000000	106.911	164.7892
1725.000000	106.988	164.0074
1750.000000	107.064	163.1979
1775.000000	107.138	162.4050
1800.000000	107.203	161.6621
1825.000000	107.260	160.9686
1850.000000	107.316	160.2922
1875.000000	107.374	159.5984
1900.000000	107.436	158.8789
1925.000000	107.507	158.1404
1950.000000	107.585	157.3743
1975.000000	107.665	156.6019
2000.000000	107.740	155.8456
2030.000000	107.822	154.9562
2060.000000	107.894	154.1010
2090.000000	107.957	153.2773
2120.000000	108.019	152.4495
2140.000000	108.064	151.8839
2180.000000	108.168	150.6996
2200.000000	108.225	150.0847
2240.000000	108.349	148.8170
2270.000000	108.443	147.8408
2300.000000	108.529	146.8797
2330.000000	108.606	145.9547
2360.000000	108.680	145.0510
2400.000000	108.772	143.8145
2430.000000	108.836	142.8442
2470.000000	108.925	141.5292
2500.000000	108.995	140.5353
2540.000000	109.088	139.1601
2580.000000	109.181	137.7359
2620.000000	109.270	136.3300
2650.000000	109.327	135.3010
2690.000000	109.393	133.9292
2720.000000	109.441	132.8762
2760.000000	109.504	131.4398
2800.000000	109.568	129.9827
2850.000000	109.651	128.1178
2900.000000	109.724	126.2243
2950.000000	109.776	124.3451
3000.000000	109.805	122.5093
3040.000000	109.812	121.0705
3070.000000	109.815	119.9963
3110.000000	109.823	118.5629
3150.000000	109.832	117.1310
3200.000000	109.848	115.3709
3250.000000	109.862	113.6653
3300.000000	109.868	111.9946
3350.000000	109.860	110.3775
3400.000000	109.842	108.8469
3450.000000	109.812	107.3597
3500.000000	109.781	105.9197
3550.000000	109.756	104.5229
3600.000000	109.736	103.1384
3650.000000	109.722	101.7687
3700.000000	109.713	100.4226
3750.000000	109.700	99.0771
3820.000000	109.669	97.2133
3870.000000	109.645	95.9233
3950.000000	109.608	93.8228
4000.000000	109.595	92.4776
4060.000000	109.590	90.8233
4120.000000	109.590	89.1057
4180.000000	109.593	87.3616
4250.000000	109.578	85.3615
4310.000000	109.535	83.7105
4370.000000	109.468	82.1401
4440.000000	109.375	80.4220
4500.000000	109.301	79.0369
4550.000000	109.250	77.9238
4620.000000	109.203	76.3868
4680.000000	109.180	75.0463
4750.000000	109.167	73.4383
4820.000000	109.157	71.7855
4870.000000	109.143	70.5903
4940.000000	109.107	68.9579
5000.000000	109.066	67.6209
5080.000000	109.015	65.8856
5150.000000	108.982	64.4008
5220.000000	108.956	62.9513
5300.000000	108.935	61.3111
5380.000000	108.925	59.7203
5450.000000	108.925	58.3396
5520.000000	108.924	56.9523
5600.000000	108.918	55.4307
5700.000000	108.903	53.6111
5800.000000	108.897	51.8587
5900.000000	108.921	50.1230
6000.000000	108.967	48.3611
6080.000000	109.001	47.0033
6150.000000	109.021	45.7959
6220.000000	109.031	44.5373
6300.000000	109.033	43.0956
6400.000000	109.013	41.3089
6500.000000	108.962	39.5027
6600.000000	108.885	37.7385
6700.000000	108.790	36.0865
6800.000000	108.696	34.6118
6900.000000	108.617	33.3555
7000.000000	108.557	32.3809
7100.000000	108.534	31.6892
7200.000000	108.573	31.0999
7300.000000	108.680	30.4877
7400.000000	108.845	29.8728
7500.000000	109.073	29.1360
7620.000000	109.443	27.7695
7750.000000	109.971	25.5095
7880.000000	110.614	22.0739
8000.000000	111.255	17.2681
8120.000000	111.837	10.3431
8250.000000	112.212	0.1689
8380.000000	112.094	-11.9088
8500.000000	111.416	-22.5394
8620.000000	110.256	-30.1838
8750.000000	108.780	-33.4966
8850.000000	107.839	-32.8161
9000.000000	107.305	-29.9141
9120.000000	107.575	-30.0283
9250.000000	107.928	-34.9209
9380.000000	107.824	-43.1001
9500.000000	107.225	-50.6589
9620.000000	106.283	-56.4420
9750.000000	105.090	-60.2476
9880.000000	103.880	-61.8663
10000.000000	102.825	-61.9313
10150.000000	101.651	-60.6113
10300.000000	100.666	-58.0391
10440.000000	99.928	-54.8346
10600.000000	99.321	-50.6466
10750.000000	98.997	-46.6392
10900.000000	98.877	-43.0125
11060.000000	98.875	-39.4681
11200.000000	98.988	-36.2211
11380.000000	99.416	-32.3935
11500.000000	99.852	-30.6698
11720.000000	100.794	-29.6674
11800.000000	101.153	-29.9918
12060.000000	102.250	-33.5376
12200.000000	102.740	-36.9480
12410.000000	103.276	-43.5839
12500.000000	103.420	-46.7756
12650.000000	103.538	-52.2350
12800.000000	103.515	-57.5619
13150.000000	103.104	-68.1724
13200.000000	103.030	-69.4261
13400.000000	102.770	-73.9419
13600.000000	102.623	-78.2336
13800.000000	102.579	-82.9918
14000.000000	102.592	-88.5817
14300.000000	102.613	-99.2401
14500.000000	102.493	-108.2175
14750.000000	101.995	-121.0624
15000.000000	100.996	-134.3468
15250.000000	99.464	-146.6449
15500.000000	97.354	-155.8870
15750.000000	94.727	-158.5538
16000.000000	92.192	-153.8063
16250.000000	90.444	-145.9547
16500.000000	89.286	-136.6431
16750.000000	88.985	-122.0810
17000.000000	91.090	-105.9247
17250.000000	93.820	-103.4436
17500.000000	95.625	-111.7782
17750.000000	96.858	-121.8202
18000.000000	97.828	-131.6212
18250.000000	98.757	-140.6400
18500.000000	99.933	-149.1198
18750.000000	101.566	-158.5131
19000.000000	103.664	-171.0625
19250.000000	105.929	170.3130
19500.000000	107.760	142.9827
19750.000000	108.564	107.7327
20000.000000	108.124	70.0284
