* Measurement data measured by REW V5.20.9
* Source: Input device not selected, no input selected, R, volume: no control
* Format: 512k Log Swept Sine, 1 sweep at -12.0 dBFS with no timing reference
* Dated: Oct 1, 2023 6:41:17 PM
* REW Settings:
*  C-weighting compensation: Off
*  Target level: 75.0 dB
* Note: ; 
* Measurement: starfield2 R
* Smoothing: 1/24 octave
* Frequency Step: 1/48 octave
* Start Frequency: 20.000 Hz
*
* Freq(Hz)	SPL(dB)	Phase(degrees)
20.000000	106.147	-144.1886
20.299999	106.252	-144.6119
20.600000	106.352	-145.3765
20.900000	106.412	-146.3464
21.200001	106.425	-147.2421
21.400000	106.422	-147.6759
21.799999	106.439	-148.2081
22.000000	106.474	-148.4130
22.400000	106.605	-149.0875
22.700001	106.709	-150.0631
23.000000	106.762	-151.4259
23.299999	106.732	-152.8574
23.600000	106.626	-153.9992
24.000000	106.428	-154.6468
24.299999	106.315	-154.4807
24.700001	106.284	-153.8836
25.000000	106.343	-153.6205
25.400000	106.458	-153.8462
25.799999	106.532	-154.5155
26.200001	106.557	-155.1397
26.500000	106.578	-155.4555
26.900000	106.643	-155.8521
27.200001	106.713	-156.3580
27.600000	106.787	-157.4512
28.000000	106.784	-158.7790
28.500000	106.674	-160.0459
29.000000	106.554	-160.4923
29.500000	106.516	-160.5511
30.000000	106.540	-160.7831
30.400000	106.566	-161.1269
30.700001	106.583	-161.4165
31.100000	106.606	-161.8369
31.500000	106.618	-162.2998
32.000000	106.599	-162.7118
32.500000	106.595	-162.5091
33.000000	106.743	-161.9577
33.500000	107.062	-162.2907
34.000000	107.336	-164.4033
34.500000	107.339	-167.4010
35.000000	107.066	-169.3980
35.500000	106.753	-169.4328
36.000000	106.629	-168.5209
36.500000	106.655	-168.0577
37.000000	106.660	-168.0918
37.500000	106.639	-167.8599
38.200001	106.751	-167.5361
38.700001	106.844	-168.3676
39.500000	106.640	-169.7997
40.000000	106.469	-169.0419
40.599998	106.560	-167.5927
41.200001	106.819	-168.0949
41.799999	106.865	-170.1165
42.500000	106.644	-171.4487
43.099998	106.524	-171.3669
43.700001	106.527	-171.5418
44.400002	106.509	-172.3008
45.000000	106.460	-172.7932
45.500000	106.435	-173.1255
46.200001	106.392	-173.6515
46.799999	106.334	-173.8205
47.500000	106.332	-173.6022
48.200001	106.424	-173.6924
48.700001	106.490	-174.1645
49.400002	106.528	-175.1446
50.000000	106.503	-176.0425
50.799999	106.397	-176.9878
51.500000	106.289	-177.2886
52.200001	106.242	-177.3179
53.000000	106.251	-177.5957
53.799999	106.254	-178.1201
54.500000	106.249	-178.5104
55.200001	106.256	-178.8031
56.000000	106.280	-179.1181
57.000000	106.307	-179.5723
58.000000	106.298	-179.9432
59.000000	106.270	179.8647
60.000000	106.226	179.6813
60.799999	106.173	179.5988
61.500000	106.137	179.6442
62.200001	106.141	179.6347
63.000000	106.174	179.1860
64.000000	106.135	178.1212
65.000000	106.012	177.6823
66.000000	105.994	177.7983
67.000000	106.048	177.2706
68.000000	106.019	176.2227
69.000000	105.898	175.2910
70.000000	105.740	174.8098
71.000000	105.626	174.5541
72.000000	105.504	174.4007
73.000000	105.442	175.2396
74.000000	105.612	176.2046
75.000000	105.844	176.1660
76.199997	106.025	175.6660
77.500000	106.090	175.0551
78.800003	106.015	174.8888
80.000000	105.962	174.9283
81.199997	105.899	174.1439
82.500000	105.724	173.1389
83.800003	105.604	172.5143
85.000000	105.566	171.8575
86.199997	105.555	171.3370
87.500000	105.580	171.0615
88.500000	105.608	170.8674
90.000000	105.589	170.6204
91.199997	105.544	170.6711
92.500000	105.512	170.5700
93.800003	105.447	170.1128
95.000000	105.370	169.7901
96.199997	105.344	169.5285
97.500000	105.354	169.0282
98.800003	105.358	168.5113
100.000000	105.348	168.1507
101.500000	105.300	167.9768
103.000000	105.254	168.0450
104.400002	105.220	168.0322
106.000000	105.211	167.9642
107.500000	105.278	167.5617
109.000000	105.308	166.4391
110.599998	105.181	165.5559
112.000000	105.056	165.6935
113.800003	104.998	166.2153
115.000000	104.996	166.4746
117.199997	104.991	166.4932
118.000000	104.957	166.3962
120.599998	104.729	165.6304
122.000000	104.482	165.3198
124.099998	104.331	165.7361
125.000000	104.392	165.6476
126.500000	104.520	164.9788
128.000000	104.583	164.4578
131.500000	104.571	164.6826
132.000000	104.559	164.7123
134.000000	104.506	164.4500
136.000000	104.433	163.8148
138.000000	104.368	163.5427
140.000000	104.372	163.5532
143.000000	104.405	163.2318
145.000000	104.407	162.9319
147.500000	104.379	162.6892
150.000000	104.306	162.5685
152.500000	104.231	162.3802
155.000000	104.159	162.2045
157.500000	104.096	162.1231
160.000000	104.029	162.0894
162.500000	103.980	162.0416
165.000000	103.959	161.8576
167.500000	103.900	161.6265
170.000000	103.838	161.5714
172.500000	103.783	161.4541
175.000000	103.741	161.3639
177.500000	103.700	161.1942
180.000000	103.649	161.0657
182.500000	103.608	161.0269
185.000000	103.575	161.0391
187.500000	103.533	160.9629
190.000000	103.467	160.7819
192.500000	103.388	160.6234
195.000000	103.313	160.5970
197.500000	103.264	160.6379
200.000000	103.231	160.5351
203.000000	103.188	160.3253
206.000000	103.138	160.1487
209.000000	103.081	160.1181
212.000000	103.023	160.1492
214.000000	102.984	160.1557
218.000000	102.897	160.0939
220.000000	102.840	160.0935
224.000000	102.735	160.3707
227.000000	102.704	160.3582
230.000000	102.661	160.2234
233.000000	102.622	160.2964
236.000000	102.599	160.4232
240.000000	102.573	160.4574
243.000000	102.555	160.5551
247.000000	102.521	160.6577
250.000000	102.465	160.5285
254.000000	102.381	160.3170
258.000000	102.332	160.2084
262.000000	102.278	160.2870
265.000000	102.236	160.4366
269.000000	102.188	160.4774
272.000000	102.142	160.4813
276.000000	102.058	160.6754
280.000000	102.031	160.7510
285.000000	102.011	160.7060
290.000000	101.927	160.7422
295.000000	101.873	160.5382
300.000000	101.797	160.5391
304.000000	101.742	160.6046
307.000000	101.711	160.7261
311.000000	101.680	161.0127
315.000000	101.661	161.2076
320.000000	101.619	161.2045
325.000000	101.563	161.2485
330.000000	101.475	161.4539
335.000000	101.380	161.6342
340.000000	101.357	161.9181
345.000000	101.372	162.0786
350.000000	101.345	162.0166
355.000000	101.294	162.0804
360.000000	101.245	162.2935
365.000000	101.220	162.5086
370.000000	101.180	162.6612
375.000000	101.095	162.7569
382.000000	101.019	162.7852
387.000000	100.984	162.9197
395.000000	100.939	163.2243
400.000000	100.912	163.4727
406.000000	100.875	163.7018
412.000000	100.828	163.8754
418.000000	100.770	164.0818
425.000000	100.694	164.3061
431.000000	100.635	164.4607
437.000000	100.596	164.5012
444.000000	100.557	164.6429
450.000000	100.544	164.9476
455.000000	100.522	165.2250
462.000000	100.469	165.8022
468.000000	100.433	166.2478
475.000000	100.411	166.4620
482.000000	100.365	166.6190
487.000000	100.317	166.7414
494.000000	100.270	166.8385
500.000000	100.239	167.0112
508.000000	100.206	167.3540
515.000000	100.169	167.7615
522.000000	100.137	168.0922
530.000000	100.094	168.2584
538.000000	100.076	168.5751
545.000000	100.073	169.0217
552.000000	100.059	169.3506
560.000000	99.992	169.4669
570.000000	99.910	169.6755
580.000000	99.840	170.1161
590.000000	99.773	170.8136
600.000000	99.757	171.2295
608.000000	99.734	171.4424
615.000000	99.728	171.8245
622.000000	99.713	172.2263
630.000000	99.670	172.5992
640.000000	99.627	173.1283
650.000000	99.624	173.7390
660.000000	99.620	174.2970
670.000000	99.615	174.8745
680.000000	99.609	175.2914
690.000000	99.606	175.6398
700.000000	99.586	176.1221
710.000000	99.551	176.7611
720.000000	99.533	177.4734
730.000000	99.533	178.1382
740.000000	99.530	178.6545
750.000000	99.525	179.0804
762.000000	99.543	179.6259
775.000000	99.553	-179.6714
788.000000	99.559	-178.9372
800.000000	99.558	-178.2456
812.000000	99.570	-177.5169
825.000000	99.606	-176.6929
838.000000	99.651	-175.9489
850.000000	99.680	-175.3276
862.000000	99.711	-174.5916
875.000000	99.748	-173.8204
885.000000	99.785	-173.3008
900.000000	99.847	-172.4596
912.000000	99.897	-171.7740
925.000000	99.961	-171.0339
938.000000	100.030	-170.2264
950.000000	100.104	-169.5329
962.000000	100.190	-168.9279
975.000000	100.282	-168.3303
988.000000	100.373	-167.8020
1000.000000	100.475	-167.3010
1015.000000	100.619	-166.6687
1030.000000	100.760	-166.0899
1044.000000	100.872	-165.6183
1060.000000	100.996	-165.1725
1075.000000	101.139	-164.8153
1090.000000	101.289	-164.5032
1106.000000	101.440	-164.1763
1120.000000	101.565	-163.9299
1138.000000	101.739	-163.7604
1150.000000	101.859	-163.7255
1172.000000	102.086	-163.6702
1180.000000	102.165	-163.6677
1206.000000	102.401	-163.7932
1220.000000	102.514	-163.8875
1241.000000	102.670	-164.0463
1250.000000	102.738	-164.1242
1265.000000	102.845	-164.2372
1280.000000	102.947	-164.3544
1315.000000	103.189	-164.8246
1320.000000	103.222	-164.9017
1340.000000	103.351	-165.2013
1360.000000	103.475	-165.4805
1380.000000	103.593	-165.7366
1400.000000	103.708	-165.9907
1430.000000	103.877	-166.4152
1450.000000	103.990	-166.7036
1475.000000	104.136	-167.0722
1500.000000	104.272	-167.5274
1525.000000	104.395	-167.9048
1550.000000	104.502	-168.1903
1575.000000	104.602	-168.4354
1600.000000	104.705	-168.6461
1625.000000	104.813	-168.8946
1650.000000	104.939	-169.1869
1675.000000	105.080	-169.5223
1700.000000	105.228	-169.8926
1725.000000	105.379	-170.2566
1750.000000	105.523	-170.6267
1775.000000	105.656	-170.9412
1800.000000	105.782	-171.1985
1825.000000	105.907	-171.4977
1850.000000	106.034	-171.8333
1875.000000	106.170	-172.1841
1900.000000	106.315	-172.5928
1925.000000	106.466	-173.0510
1950.000000	106.622	-173.5164
1975.000000	106.777	-173.9988
2000.000000	106.933	-174.4824
2030.000000	107.118	-175.0482
2060.000000	107.302	-175.6928
2090.000000	107.490	-176.4308
2120.000000	107.686	-177.2145
2140.000000	107.819	-177.7618
2180.000000	108.089	-178.8882
2200.000000	108.224	-179.4615
2240.000000	108.491	179.3154
2270.000000	108.686	178.3440
2300.000000	108.877	177.3394
2330.000000	109.065	176.2764
2360.000000	109.251	175.1458
2400.000000	109.489	173.5495
2430.000000	109.665	172.2881
2470.000000	109.890	170.5474
2500.000000	110.054	169.1962
2540.000000	110.271	167.2699
2580.000000	110.479	165.2176
2620.000000	110.678	163.1066
2650.000000	110.822	161.4810
2690.000000	110.998	159.2404
2720.000000	111.117	157.5065
2760.000000	111.262	155.1580
2800.000000	111.390	152.7949
2850.000000	111.520	149.8033
2900.000000	111.624	146.8373
2950.000000	111.705	143.9155
3000.000000	111.768	141.0146
3040.000000	111.804	138.7156
3070.000000	111.824	137.0311
3110.000000	111.842	134.8578
3150.000000	111.851	132.7411
3200.000000	111.852	130.1345
3250.000000	111.846	127.5658
3300.000000	111.827	125.0538
3350.000000	111.798	122.6267
3400.000000	111.764	120.2922
3450.000000	111.722	118.0314
3500.000000	111.677	115.8624
3550.000000	111.629	113.7679
3600.000000	111.573	111.7206
3650.000000	111.517	109.7381
3700.000000	111.460	107.8128
3750.000000	111.406	105.9335
3820.000000	111.347	103.3655
3870.000000	111.323	101.5219
3950.000000	111.317	98.4744
4000.000000	111.327	96.4977
4060.000000	111.335	94.0439
4120.000000	111.331	91.5676
4180.000000	111.310	89.0907
4250.000000	111.258	86.1568
4310.000000	111.199	83.6029
4370.000000	111.133	80.9768
4440.000000	111.045	77.7975
4500.000000	110.960	75.0479
4550.000000	110.883	72.7590
4620.000000	110.760	69.5134
4680.000000	110.633	66.7133
4750.000000	110.450	63.4927
4820.000000	110.230	60.3413
4870.000000	110.054	58.1374
4940.000000	109.789	55.1367
5000.000000	109.547	52.6870
5080.000000	109.210	49.6329
5150.000000	108.901	47.1141
5220.000000	108.576	44.7857
5300.000000	108.188	42.4659
5380.000000	107.788	40.4873
5450.000000	107.433	39.0082
5520.000000	107.086	37.7352
5600.000000	106.708	36.4793
5700.000000	106.269	35.2441
5800.000000	105.862	34.3531
5900.000000	105.484	33.6611
6000.000000	105.128	33.1704
6080.000000	104.850	32.9189
6150.000000	104.615	32.7860
6220.000000	104.390	32.7589
6300.000000	104.148	32.8578
6400.000000	103.866	33.1304
6500.000000	103.608	33.5553
6600.000000	103.375	34.0932
6700.000000	103.173	34.6950
6800.000000	103.002	35.3718
6900.000000	102.867	36.1533
7000.000000	102.775	37.0527
7100.000000	102.729	38.0062
7200.000000	102.729	38.9240
7300.000000	102.771	39.7770
7400.000000	102.854	40.5583
7500.000000	102.983	41.2918
7620.000000	103.204	42.1546
7750.000000	103.531	43.0297
7880.000000	103.949	43.7686
8000.000000	104.426	44.2536
8120.000000	105.009	44.4209
8250.000000	105.770	44.1063
8380.000000	106.689	43.1075
8500.000000	107.698	41.2992
8620.000000	108.869	38.2247
8750.000000	110.295	32.7087
8850.000000	111.427	26.2079
9000.000000	112.871	11.6279
9120.000000	113.477	-4.0299
9250.000000	113.329	-22.4457
9380.000000	112.381	-38.6182
9500.000000	111.050	-49.6642
9620.000000	109.564	-57.0734
9750.000000	108.002	-62.0317
9880.000000	106.603	-64.9019
10000.000000	105.486	-66.3420
10150.000000	104.316	-67.0449
10300.000000	103.361	-66.9408
10440.000000	102.631	-66.3634
10600.000000	101.963	-65.4219
10750.000000	101.485	-64.4821
10900.000000	101.137	-63.5214
11060.000000	100.906	-62.4443
11200.000000	100.817	-61.5293
11380.000000	100.857	-60.5823
11500.000000	100.981	-60.1663
11720.000000	101.431	-60.0317
11800.000000	101.669	-60.2792
12060.000000	102.733	-63.2003
12200.000000	103.439	-67.2832
12410.000000	104.158	-79.2201
12500.000000	104.044	-85.7062
12650.000000	103.047	-91.8773
12800.000000	102.099	-86.5757
13150.000000	105.494	-82.0801
13200.000000	105.964	-85.3317
13400.000000	107.070	-102.9515
13600.000000	107.034	-121.8607
13800.000000	106.201	-137.2950
14000.000000	105.028	-148.1580
14300.000000	103.407	-158.2773
14500.000000	102.659	-162.8542
14750.000000	102.145	-167.7129
15000.000000	102.127	-172.6816
15250.000000	102.645	-179.0450
15500.000000	103.653	171.2090
15750.000000	104.804	155.3112
16000.000000	105.393	131.9315
16250.000000	104.805	105.0623
16500.000000	103.052	81.9102
16750.000000	100.723	65.4361
17000.000000	98.455	53.8724
17250.000000	96.566	44.5941
17500.000000	95.104	35.6894
17750.000000	93.995	25.8482
18000.000000	93.097	14.0856
18250.000000	92.207	-0.2224
18500.000000	91.090	-16.8572
18750.000000	89.567	-34.8762
19000.000000	87.585	-56.1799
19250.000000	85.226	-106.0725
19500.000000	82.650	65.4810
19750.000000	80.014	-122.0986
20000.000000	77.406	159.9077
