* Measurement data measured by REW V5.20.5
* Source: Input device not selected, no input selected, L, volume: no control
* Format: 512k Log Swept Sine, 1 sweep at -12.0 dBFS with no timing reference
* Dated: Jan 14, 2023 5:16:06 PM
* REW Settings:
*  C-weighting compensation: Off
*  Target level: 75.0 dB
* Note: ; 
* Measurement: R
* Smoothing: 1/12 octave
* Frequency Step: 1/48 octave
* Start Frequency: 20.000 Hz
*
* Freq(Hz)	SPL(dB)	Phase(degrees)
20.000000	116.859	-170.2832
20.299999	116.871	-171.2078
20.600000	116.879	-172.1028
20.900000	116.885	-172.9705
21.200001	116.890	-173.8177
21.400000	116.892	-174.3729
21.799999	116.892	-175.4536
22.000000	116.890	-175.9739
22.400000	116.886	-176.9615
22.700001	116.885	-177.6558
23.000000	116.889	-178.3246
23.299999	116.898	-178.9948
23.600000	116.911	-179.6906
24.000000	116.927	-180.6833
24.299999	116.933	-181.4734
24.700001	116.927	-182.5533
25.000000	116.910	-183.3489
25.400000	116.876	-184.3544
25.799999	116.833	-185.2821
26.200001	116.789	-186.1416
26.500000	116.756	-186.7520
26.900000	116.716	-187.5312
27.200001	116.691	-188.0992
27.600000	116.666	-188.8557
28.000000	116.654	-189.6491
28.500000	116.652	-190.7487
29.000000	116.654	-191.9796
29.500000	116.654	-193.2878
30.000000	116.653	-194.6066
30.400000	116.655	-195.6560
30.700001	116.657	-196.4432
31.100000	116.657	-197.4879
31.500000	116.650	-198.4954
32.000000	116.626	-199.6158
32.500000	116.595	-200.4874
33.000000	116.572	-201.0875
33.500000	116.570	-201.4921
34.000000	116.589	-201.8320
34.500000	116.620	-202.2187
35.000000	116.644	-202.6976
35.500000	116.651	-203.2524
36.000000	116.635	-203.8348
36.500000	116.601	-204.4107
37.000000	116.560	-204.9915
37.500000	116.518	-205.6298
38.200001	116.456	-206.7165
38.700001	116.402	-207.6254
39.500000	116.298	-209.1322
40.000000	116.237	-210.0286
40.599998	116.181	-211.0635
41.200001	116.145	-212.0888
41.799999	116.121	-213.0934
42.500000	116.095	-214.1852
43.099998	116.065	-214.9868
43.700001	116.030	-215.5613
44.400002	116.011	-215.9216
45.000000	116.037	-216.2134
45.500000	116.072	-216.7052
46.200001	116.077	-217.8464
46.799999	116.003	-218.9411
47.500000	115.856	-219.9156
48.200001	115.716	-220.5565
48.700001	115.643	-220.9638
49.400002	115.577	-221.6312
50.000000	115.545	-222.3408
50.799999	115.513	-223.4492
51.500000	115.484	-224.4494
52.200001	115.454	-225.3721
53.000000	115.422	-226.3219
53.799999	115.385	-227.1806
54.500000	115.343	-227.8582
55.200001	115.293	-228.4944
56.000000	115.225	-229.2112
57.000000	115.127	-230.1151
58.000000	115.029	-231.0428
59.000000	114.947	-232.0074
60.000000	114.888	-233.0409
60.799999	114.853	-233.9013
61.500000	114.825	-234.6408
62.200001	114.796	-235.3427
63.000000	114.761	-236.0772
64.000000	114.714	-236.8966
65.000000	114.662	-237.6749
66.000000	114.598	-238.4435
67.000000	114.532	-239.1964
68.000000	114.474	-240.0001
69.000000	114.417	-240.8948
70.000000	114.354	-241.8098
71.000000	114.287	-242.6571
72.000000	114.224	-243.4254
73.000000	114.165	-244.1741
74.000000	114.101	-244.9364
75.000000	114.030	-245.6769
76.199997	113.946	-246.5189
77.500000	113.868	-247.4293
78.800003	113.803	-248.3330
80.000000	113.758	-249.1687
81.199997	113.713	-250.0518
82.500000	113.645	-250.9778
83.800003	113.566	-251.8031
85.000000	113.490	-252.5506
86.199997	113.410	-253.3242
87.500000	113.319	-254.1797
88.500000	113.250	-254.8343
90.000000	113.154	-255.8042
91.199997	113.087	-256.5868
92.500000	113.019	-257.4233
93.800003	112.956	-258.2245
95.000000	112.902	-258.9338
96.199997	112.850	-259.6214
97.500000	112.792	-260.3538
98.800003	112.731	-261.0835
100.000000	112.673	-261.7598
101.500000	112.597	-262.6191
103.000000	112.516	-263.4774
104.400002	112.441	-264.2448
106.000000	112.360	-265.0934
107.500000	112.287	-265.8864
109.000000	112.214	-266.6674
110.599998	112.140	-267.4783
112.000000	112.078	-268.1762
113.800003	112.001	-269.0551
115.000000	111.949	-269.6265
117.199997	111.855	-270.6596
118.000000	111.821	-271.0334
120.599998	111.712	-272.2335
122.000000	111.654	-272.8595
124.099998	111.568	-273.7705
125.000000	111.531	-274.1568
126.500000	111.469	-274.7997
128.000000	111.407	-275.4409
131.500000	111.276	-276.9341
132.000000	111.258	-277.1470
134.000000	111.186	-277.9911
136.000000	111.109	-278.8145
138.000000	111.028	-279.6099
140.000000	110.951	-280.3766
143.000000	110.849	-281.4731
145.000000	110.785	-282.1586
147.500000	110.703	-282.9849
150.000000	110.618	-283.8335
152.500000	110.531	-284.7004
155.000000	110.449	-285.5493
157.500000	110.373	-286.3736
160.000000	110.302	-287.1831
162.500000	110.237	-287.9796
165.000000	110.177	-288.7697
167.500000	110.118	-289.5648
170.000000	110.053	-290.3597
172.500000	109.983	-291.1367
175.000000	109.916	-291.8992
177.500000	109.853	-292.6623
180.000000	109.791	-293.4125
182.500000	109.726	-294.1333
185.000000	109.659	-294.8256
187.500000	109.594	-295.4865
190.000000	109.535	-296.1237
192.500000	109.481	-296.7552
195.000000	109.429	-297.3890
197.500000	109.377	-298.0148
200.000000	109.322	-298.6148
203.000000	109.254	-299.2982
206.000000	109.185	-299.9629
209.000000	109.117	-300.6263
212.000000	109.052	-301.2921
214.000000	109.010	-301.7343
218.000000	108.930	-302.5949
220.000000	108.891	-303.0070
224.000000	108.815	-303.8040
227.000000	108.759	-304.3899
230.000000	108.704	-304.9688
233.000000	108.650	-305.5330
236.000000	108.596	-306.0722
240.000000	108.522	-306.7369
243.000000	108.465	-307.1846
247.000000	108.392	-307.7423
250.000000	108.342	-308.1813
254.000000	108.287	-308.8043
258.000000	108.239	-309.3958
262.000000	108.197	-309.9217
265.000000	108.172	-310.2955
269.000000	108.146	-310.8185
272.000000	108.130	-311.2469
276.000000	108.107	-311.8593
280.000000	108.080	-312.5089
285.000000	108.040	-313.3357
290.000000	107.992	-314.1149
295.000000	107.938	-314.8382
300.000000	107.882	-315.5221
304.000000	107.837	-316.0537
307.000000	107.805	-316.4450
311.000000	107.765	-316.9526
315.000000	107.728	-317.4405
320.000000	107.683	-318.0209
325.000000	107.639	-318.5713
330.000000	107.594	-319.0947
335.000000	107.549	-319.5937
340.000000	107.507	-320.0781
345.000000	107.467	-320.5514
350.000000	107.430	-321.0144
355.000000	107.395	-321.4706
360.000000	107.361	-321.9196
365.000000	107.328	-322.3557
370.000000	107.294	-322.7746
375.000000	107.260	-323.1758
382.000000	107.216	-323.7140
387.000000	107.188	-324.0853
395.000000	107.148	-324.6635
400.000000	107.124	-325.0159
406.000000	107.094	-325.4209
412.000000	107.062	-325.8027
418.000000	107.030	-326.1682
425.000000	106.996	-326.5829
431.000000	106.971	-326.9344
437.000000	106.948	-327.2816
444.000000	106.922	-327.6794
450.000000	106.901	-328.0108
455.000000	106.882	-328.2748
462.000000	106.855	-328.6212
468.000000	106.832	-328.9009
475.000000	106.807	-329.2188
482.000000	106.784	-329.5295
487.000000	106.770	-329.7424
494.000000	106.750	-330.0251
500.000000	106.732	-330.2559
508.000000	106.705	-330.5546
515.000000	106.681	-330.8149
522.000000	106.659	-331.0730
530.000000	106.638	-331.3499
538.000000	106.620	-331.5981
545.000000	106.606	-331.7969
552.000000	106.592	-331.9884
560.000000	106.575	-332.2049
570.000000	106.554	-332.4690
580.000000	106.533	-332.7204
590.000000	106.517	-332.9478
600.000000	106.504	-333.1470
608.000000	106.495	-333.2911
615.000000	106.486	-333.4091
622.000000	106.477	-333.5229
630.000000	106.466	-333.6503
640.000000	106.454	-333.7992
650.000000	106.445	-333.9260
660.000000	106.441	-334.0302
670.000000	106.438	-334.1223
680.000000	106.436	-334.2160
690.000000	106.434	-334.3123
700.000000	106.432	-334.3975
710.000000	106.432	-334.4597
720.000000	106.434	-334.4957
730.000000	106.437	-334.5088
740.000000	106.440	-334.5057
750.000000	106.443	-334.4989
762.000000	106.448	-334.4998
775.000000	106.456	-334.5051
788.000000	106.466	-334.4836
800.000000	106.478	-334.4163
812.000000	106.494	-334.3040
825.000000	106.516	-334.1492
838.000000	106.543	-333.9785
850.000000	106.573	-333.8150
862.000000	106.609	-333.6471
875.000000	106.654	-333.4572
885.000000	106.694	-333.3017
900.000000	106.762	-333.0527
912.000000	106.823	-332.8482
925.000000	106.895	-332.6378
938.000000	106.975	-332.4576
950.000000	107.054	-332.3298
962.000000	107.139	-332.2401
975.000000	107.235	-332.1760
988.000000	107.335	-332.1328
1000.000000	107.431	-332.1037
1015.000000	107.552	-332.0858
1030.000000	107.673	-332.1113
1044.000000	107.788	-332.1922
1060.000000	107.920	-332.3534
1075.000000	108.045	-332.5620
1090.000000	108.171	-332.8160
1106.000000	108.306	-333.1299
1120.000000	108.423	-333.4378
1138.000000	108.572	-333.8802
1150.000000	108.669	-334.2068
1172.000000	108.840	-334.8674
1180.000000	108.900	-335.1228
1206.000000	109.083	-335.9749
1220.000000	109.174	-336.4331
1241.000000	109.304	-337.1096
1250.000000	109.359	-337.3974
1265.000000	109.450	-337.8824
1280.000000	109.542	-338.3871
1315.000000	109.757	-339.6953
1320.000000	109.787	-339.8959
1340.000000	109.899	-340.7113
1360.000000	110.001	-341.5191
1380.000000	110.093	-342.2961
1400.000000	110.180	-343.0445
1430.000000	110.308	-344.1569
1450.000000	110.392	-344.9164
1475.000000	110.494	-345.8876
1500.000000	110.590	-346.8645
1525.000000	110.683	-347.8331
1550.000000	110.775	-348.7899
1575.000000	110.866	-349.7310
1600.000000	110.955	-350.6512
1625.000000	111.040	-351.5487
1650.000000	111.122	-352.4278
1675.000000	111.203	-353.3002
1700.000000	111.285	-354.1795
1725.000000	111.369	-355.0745
1750.000000	111.454	-355.9860
1775.000000	111.540	-356.9082
1800.000000	111.626	-357.8379
1825.000000	111.711	-358.7775
1850.000000	111.793	-359.7300
1875.000000	111.873	-360.6960
1900.000000	111.949	-361.6765
1925.000000	112.023	-362.6724
1950.000000	112.094	-363.6811
1975.000000	112.162	-364.6974
2000.000000	112.228	-365.7175
2030.000000	112.305	-366.9454
2060.000000	112.381	-368.1827
2090.000000	112.457	-369.4438
2120.000000	112.531	-370.7387
2140.000000	112.578	-371.6183
2180.000000	112.668	-373.4023
2200.000000	112.710	-374.3060
2240.000000	112.787	-376.1529
2270.000000	112.833	-377.5790
2300.000000	112.864	-379.0239
2330.000000	112.880	-380.4489
2360.000000	112.881	-381.8033
2400.000000	112.872	-383.4224
2430.000000	112.869	-384.4748
2470.000000	112.883	-385.7207
2500.000000	112.912	-386.6240
2540.000000	112.969	-387.9001
2580.000000	113.030	-389.2760
2620.000000	113.086	-390.6628
2650.000000	113.130	-391.6524
2690.000000	113.206	-392.8965
2720.000000	113.285	-393.8286
2760.000000	113.422	-395.2155
2800.000000	113.578	-396.9217
2850.000000	113.760	-399.5763
2900.000000	113.888	-402.6596
2950.000000	113.945	-405.9099
3000.000000	113.935	-409.1117
3040.000000	113.887	-411.5648
3070.000000	113.833	-413.3284
3110.000000	113.739	-415.5680
3150.000000	113.627	-417.6606
3200.000000	113.469	-420.0279
3250.000000	113.306	-422.0825
3300.000000	113.151	-423.8359
3350.000000	113.016	-425.3625
3400.000000	112.907	-426.7737
3450.000000	112.822	-428.1699
3500.000000	112.753	-429.5992
3550.000000	112.691	-431.0522
3600.000000	112.632	-432.4842
3650.000000	112.573	-433.8494
3700.000000	112.519	-435.1277
3750.000000	112.477	-436.3347
3820.000000	112.447	-437.9998
3870.000000	112.446	-439.2558
3950.000000	112.464	-441.4754
4000.000000	112.476	-442.9740
4060.000000	112.482	-444.8248
4120.000000	112.476	-446.6880
4180.000000	112.462	-448.5500
4250.000000	112.439	-450.7292
4310.000000	112.419	-452.6104
4370.000000	112.402	-454.5026
4440.000000	112.388	-456.7115
4500.000000	112.378	-458.5938
4550.000000	112.370	-460.1517
4620.000000	112.357	-462.3226
4680.000000	112.345	-464.1852
4750.000000	112.328	-466.3754
4820.000000	112.312	-468.5916
4870.000000	112.301	-470.1888
4940.000000	112.285	-472.4387
5000.000000	112.267	-474.3771
5080.000000	112.237	-476.9739
5150.000000	112.201	-479.2547
5220.000000	112.158	-481.5385
5300.000000	112.101	-484.1466
5380.000000	112.039	-486.7492
5450.000000	111.979	-489.0168
5520.000000	111.912	-491.2657
5600.000000	111.825	-493.7999
5700.000000	111.697	-496.9031
5800.000000	111.546	-499.9261
5900.000000	111.377	-502.8376
6000.000000	111.194	-505.5790
6080.000000	111.046	-507.6057
6150.000000	110.921	-509.2480
6220.000000	110.806	-510.7847
6300.000000	110.685	-512.4472
6400.000000	110.552	-514.4285
6500.000000	110.440	-516.3196
6600.000000	110.353	-518.1349
6700.000000	110.298	-519.9151
6800.000000	110.278	-521.7310
6900.000000	110.287	-523.6735
7000.000000	110.318	-525.8390
7100.000000	110.354	-528.3171
7200.000000	110.371	-531.1641
7300.000000	110.336	-534.3503
7400.000000	110.217	-537.6991
7500.000000	109.988	-540.8627
7620.000000	109.564	-543.7425
7750.000000	108.989	-544.8293
7880.000000	108.514	-543.2802
8000.000000	108.466	-540.0293
8120.000000	108.986	-536.5630
8250.000000	110.063	-534.7650
8380.000000	111.291	-536.6437
8500.000000	112.261	-541.8457
8620.000000	112.922	-549.5010
8750.000000	113.247	-559.0083
8850.000000	113.246	-566.2114
9000.000000	112.939	-575.7547
9120.000000	112.524	-581.9634
9250.000000	111.996	-587.3048
9380.000000	111.450	-591.4315
9500.000000	110.967	-594.3862
9620.000000	110.524	-596.7138
9750.000000	110.101	-598.7178
9880.000000	109.741	-600.3505
10000.000000	109.464	-601.6378
10150.000000	109.189	-603.0564
10300.000000	108.988	-604.3531
10440.000000	108.856	-605.5284
10600.000000	108.762	-606.9109
10750.000000	108.719	-608.2969
10900.000000	108.713	-609.7875
11060.000000	108.744	-611.5011
11200.000000	108.802	-613.1317
11380.000000	108.918	-615.4822
11500.000000	109.018	-617.2620
11720.000000	109.233	-621.1063
11800.000000	109.313	-622.7216
12060.000000	109.537	-628.8535
12200.000000	109.606	-632.6967
12410.000000	109.600	-638.9908
12500.000000	109.549	-641.7958
12650.000000	109.399	-646.4696
12800.000000	109.167	-650.9780
13150.000000	108.379	-660.0134
13200.000000	108.248	-661.0912
13400.000000	107.718	-664.8776
13600.000000	107.209	-667.9404
13800.000000	106.762	-670.4807
14000.000000	106.400	-672.7379
14300.000000	106.013	-676.1840
14500.000000	105.803	-678.7659
14750.000000	105.519	-681.9856
15000.000000	105.263	-684.5096
15250.000000	105.217	-686.6498
15500.000000	105.413	-689.7927
15750.000000	105.666	-694.6373
16000.000000	105.826	-700.6288
16250.000000	105.885	-706.8976
16500.000000	105.915	-712.9809
16750.000000	106.017	-718.9398
17000.000000	106.271	-725.2433
17250.000000	106.700	-732.6146
17500.000000	107.247	-741.9023
17750.000000	107.782	-753.8903
18000.000000	108.137	-768.9845
18250.000000	108.158	-786.9036
18500.000000	107.749	-806.6644
18750.000000	106.881	-826.9843
19000.000000	105.572	-846.7250
19250.000000	103.849	-864.9358
19500.000000	101.735	-880.6815
19750.000000	99.258	-893.1238
20000.000000	96.458	-901.7924
