* Measurement data measured by REW V5.20.9
* Source: Microphone (USB Audio Device), MICROPHONE (Master Volume), R, volume: 0.250
* Format: 512k Log Swept Sine, 1 sweep at -12.0 dBFS with no timing reference
* Dated: Oct 30, 2022 12:05:54 PM
* REW Settings:
*  C-weighting compensation: Off
*  Target level: 75.0 dB
* Note: ; 
* Measurement: trio r
* Smoothing: 1/12 octave
* Frequency Step: 1/48 octave
* Start Frequency: 20.000 Hz
*
* Freq(Hz)	SPL(dB)	Phase(degrees)
20.000000	123.024	38.4622
20.299999	123.069	37.5191
20.600000	123.106	36.6068
20.900000	123.137	35.7330
21.200001	123.163	34.9013
21.400000	123.179	34.3671
21.799999	123.209	33.3320
22.000000	123.223	32.8214
22.400000	123.249	31.7935
22.700001	123.265	31.0079
23.000000	123.276	30.2120
23.299999	123.280	29.4188
23.600000	123.280	28.6417
24.000000	123.277	27.6451
24.299999	123.275	26.9267
24.700001	123.276	25.9907
25.000000	123.281	25.2895
25.400000	123.290	24.3453
25.799999	123.300	23.4001
26.200001	123.310	22.4761
26.500000	123.319	21.8051
26.900000	123.335	20.9339
27.200001	123.350	20.2853
27.600000	123.371	19.4109
28.000000	123.389	18.5233
28.500000	123.400	17.4260
29.000000	123.398	16.3929
29.500000	123.388	15.4467
30.000000	123.373	14.5744
30.400000	123.360	13.9145
30.700001	123.350	13.4371
31.100000	123.336	12.8189
31.500000	123.324	12.2121
32.000000	123.313	11.4450
32.500000	123.304	10.6423
33.000000	123.293	9.8046
33.500000	123.278	8.9654
34.000000	123.261	8.1650
34.500000	123.249	7.4115
35.000000	123.243	6.6799
35.500000	123.240	5.9492
36.000000	123.233	5.2436
36.500000	123.221	4.6145
37.000000	123.213	4.0802
37.500000	123.216	3.5844
38.200001	123.230	2.7854
38.700001	123.226	2.1049
39.500000	123.177	1.0213
40.000000	123.130	0.4431
40.599998	123.076	-0.1759
41.200001	123.028	-0.7982
41.799999	122.985	-1.4493
42.500000	122.939	-2.2211
43.099998	122.909	-2.8992
43.700001	122.885	-3.6147
44.400002	122.856	-4.4696
45.000000	122.828	-5.1584
45.500000	122.805	-5.6738
46.200001	122.778	-6.3198
46.799999	122.758	-6.8408
47.500000	122.733	-7.4389
48.200001	122.700	-8.0165
48.700001	122.673	-8.4110
49.400002	122.633	-8.9567
50.000000	122.598	-9.4487
50.799999	122.546	-10.1599
51.500000	122.494	-10.8077
52.200001	122.438	-11.4349
53.000000	122.378	-12.0903
53.799999	122.331	-12.6831
54.500000	122.304	-13.1877
55.200001	122.284	-13.7162
56.000000	122.258	-14.3453
57.000000	122.211	-15.0765
58.000000	122.156	-15.6873
59.000000	122.103	-16.2556
60.000000	122.048	-16.8476
60.799999	122.003	-17.3514
61.500000	121.964	-17.8320
62.200001	121.923	-18.3532
63.000000	121.871	-18.9745
64.000000	121.799	-19.7356
65.000000	121.719	-20.3859
66.000000	121.649	-20.8538
67.000000	121.605	-21.2455
68.000000	121.572	-21.6958
69.000000	121.532	-22.1952
70.000000	121.481	-22.7097
71.000000	121.418	-23.2337
72.000000	121.344	-23.7375
73.000000	121.268	-24.1814
74.000000	121.202	-24.5673
75.000000	121.151	-24.9415
76.199997	121.106	-25.4211
77.500000	121.059	-25.9484
78.800003	121.007	-26.4350
80.000000	120.950	-26.8644
81.199997	120.883	-27.2987
82.500000	120.799	-27.7550
83.800003	120.717	-28.1998
85.000000	120.650	-28.6253
86.199997	120.588	-29.0613
87.500000	120.524	-29.5167
88.500000	120.474	-29.8339
90.000000	120.396	-30.2425
91.199997	120.335	-30.5333
92.500000	120.270	-30.8496
93.800003	120.209	-31.1979
95.000000	120.154	-31.5624
96.199997	120.098	-31.9560
97.500000	120.036	-32.3767
98.800003	119.972	-32.7668
100.000000	119.911	-33.0960
101.500000	119.833	-33.4479
103.000000	119.758	-33.7522
104.400002	119.692	-34.0402
106.000000	119.619	-34.3797
107.500000	119.553	-34.6973
109.000000	119.492	-35.0268
110.599998	119.426	-35.3932
112.000000	119.366	-35.7119
113.800003	119.284	-36.0871
115.000000	119.227	-36.2961
117.199997	119.127	-36.6000
118.000000	119.093	-36.7060
120.599998	118.985	-37.1240
122.000000	118.923	-37.3826
124.099998	118.832	-37.7506
125.000000	118.796	-37.8925
126.500000	118.739	-38.1105
128.000000	118.682	-38.3101
131.500000	118.546	-38.7308
132.000000	118.527	-38.7870
134.000000	118.458	-39.0022
136.000000	118.402	-39.2135
138.000000	118.351	-39.4355
140.000000	118.296	-39.6727
143.000000	118.202	-40.0668
145.000000	118.135	-40.3285
147.500000	118.054	-40.5945
150.000000	117.978	-40.8017
152.500000	117.907	-41.0166
155.000000	117.839	-41.2828
157.500000	117.771	-41.5763
160.000000	117.702	-41.8390
162.500000	117.636	-42.0652
165.000000	117.571	-42.2794
167.500000	117.507	-42.4965
170.000000	117.443	-42.7298
172.500000	117.378	-42.9880
175.000000	117.313	-43.2693
177.500000	117.249	-43.5555
180.000000	117.186	-43.8185
182.500000	117.127	-44.0494
185.000000	117.072	-44.2709
187.500000	117.019	-44.5045
190.000000	116.964	-44.7415
192.500000	116.907	-44.9675
195.000000	116.847	-45.1837
197.500000	116.787	-45.3918
200.000000	116.724	-45.5911
203.000000	116.648	-45.8315
206.000000	116.570	-46.0880
209.000000	116.496	-46.3497
212.000000	116.424	-46.5905
214.000000	116.377	-46.7341
218.000000	116.284	-46.9841
220.000000	116.240	-47.0911
224.000000	116.160	-47.2833
227.000000	116.104	-47.4220
230.000000	116.046	-47.5534
233.000000	115.984	-47.6696
236.000000	115.919	-47.7668
240.000000	115.828	-47.8648
243.000000	115.755	-47.9329
247.000000	115.655	-48.0674
250.000000	115.589	-48.2081
254.000000	115.524	-48.3790
258.000000	115.466	-48.4888
262.000000	115.404	-48.5874
265.000000	115.358	-48.6538
269.000000	115.296	-48.7021
272.000000	115.244	-48.7233
276.000000	115.178	-48.7602
280.000000	115.122	-48.8022
285.000000	115.055	-48.8349
290.000000	114.990	-48.8392
295.000000	114.934	-48.8603
300.000000	114.885	-48.9324
304.000000	114.846	-49.0106
307.000000	114.817	-49.0668
311.000000	114.781	-49.1295
315.000000	114.748	-49.1867
320.000000	114.713	-49.2533
325.000000	114.682	-49.2857
330.000000	114.652	-49.2938
335.000000	114.622	-49.3206
340.000000	114.593	-49.3834
345.000000	114.566	-49.4695
350.000000	114.540	-49.5615
355.000000	114.516	-49.6498
360.000000	114.492	-49.7248
365.000000	114.468	-49.7918
370.000000	114.446	-49.8628
375.000000	114.427	-49.9421
382.000000	114.413	-50.0677
387.000000	114.409	-50.1807
395.000000	114.404	-50.3810
400.000000	114.398	-50.4998
406.000000	114.391	-50.6398
412.000000	114.390	-50.7904
418.000000	114.393	-50.9592
425.000000	114.401	-51.1784
431.000000	114.412	-51.3760
437.000000	114.428	-51.5735
444.000000	114.451	-51.8199
450.000000	114.470	-52.0628
455.000000	114.486	-52.2833
462.000000	114.508	-52.6045
468.000000	114.527	-52.8859
475.000000	114.551	-53.2161
482.000000	114.579	-53.5443
487.000000	114.601	-53.7805
494.000000	114.631	-54.1289
500.000000	114.654	-54.4637
508.000000	114.681	-54.9853
515.000000	114.708	-55.5015
522.000000	114.742	-56.0397
530.000000	114.783	-56.6560
538.000000	114.820	-57.2722
545.000000	114.851	-57.8075
552.000000	114.881	-58.3447
560.000000	114.915	-58.9817
570.000000	114.954	-59.8429
580.000000	114.989	-60.8020
590.000000	115.020	-61.8740
600.000000	115.038	-63.0473
608.000000	115.035	-64.0242
615.000000	115.015	-64.8659
622.000000	114.980	-65.6451
630.000000	114.928	-66.4040
640.000000	114.870	-67.1574
650.000000	114.840	-67.8267
660.000000	114.833	-68.5373
670.000000	114.832	-69.3014
680.000000	114.825	-70.0997
690.000000	114.809	-70.9259
700.000000	114.786	-71.7651
710.000000	114.757	-72.6007
720.000000	114.721	-73.4183
730.000000	114.679	-74.2090
740.000000	114.633	-74.9717
750.000000	114.584	-75.7051
762.000000	114.524	-76.5400
775.000000	114.457	-77.3830
788.000000	114.391	-78.1559
800.000000	114.330	-78.8131
812.000000	114.267	-79.4391
825.000000	114.196	-80.1082
838.000000	114.123	-80.7646
850.000000	114.054	-81.3356
862.000000	113.983	-81.8477
875.000000	113.903	-82.3106
885.000000	113.840	-82.5906
900.000000	113.745	-82.8776
912.000000	113.673	-82.9935
925.000000	113.603	-83.0168
938.000000	113.545	-82.9506
950.000000	113.504	-82.8304
962.000000	113.474	-82.6749
975.000000	113.458	-82.4834
988.000000	113.458	-82.2786
1000.000000	113.474	-82.0853
1015.000000	113.509	-81.8497
1030.000000	113.560	-81.6349
1044.000000	113.620	-81.4606
1060.000000	113.702	-81.2976
1075.000000	113.791	-81.1895
1090.000000	113.889	-81.1383
1106.000000	114.003	-81.1550
1120.000000	114.108	-81.2278
1138.000000	114.248	-81.3920
1150.000000	114.342	-81.5406
1172.000000	114.518	-81.8859
1180.000000	114.582	-82.0353
1206.000000	114.787	-82.6082
1220.000000	114.896	-82.9635
1241.000000	115.062	-83.5447
1250.000000	115.133	-83.8103
1265.000000	115.251	-84.2740
1280.000000	115.368	-84.7618
1315.000000	115.634	-85.9670
1320.000000	115.670	-86.1433
1340.000000	115.815	-86.8503
1360.000000	115.957	-87.5604
1380.000000	116.098	-88.2822
1400.000000	116.242	-89.0239
1430.000000	116.461	-90.1672
1450.000000	116.610	-90.9351
1475.000000	116.798	-91.8876
1500.000000	116.987	-92.8319
1525.000000	117.178	-93.7746
1550.000000	117.370	-94.7235
1575.000000	117.567	-95.6858
1600.000000	117.768	-96.6748
1625.000000	117.975	-97.7042
1650.000000	118.186	-98.7755
1675.000000	118.403	-99.8831
1700.000000	118.623	-101.0341
1725.000000	118.843	-102.2426
1750.000000	119.064	-103.5178
1775.000000	119.286	-104.8617
1800.000000	119.507	-106.2753
1825.000000	119.727	-107.7654
1850.000000	119.945	-109.3405
1875.000000	120.159	-110.9999
1900.000000	120.366	-112.7352
1925.000000	120.565	-114.5351
1950.000000	120.753	-116.3905
1975.000000	120.929	-118.2978
2000.000000	121.092	-120.2571
2030.000000	121.272	-122.6734
2060.000000	121.434	-125.1469
2090.000000	121.579	-127.6555
2120.000000	121.705	-130.1803
2140.000000	121.779	-131.8672
2180.000000	121.901	-135.2339
2200.000000	121.949	-136.9024
2240.000000	122.022	-140.1779
2270.000000	122.058	-142.5594
2300.000000	122.083	-144.8635
2330.000000	122.103	-147.0919
2360.000000	122.122	-149.2582
2400.000000	122.153	-152.0883
2430.000000	122.179	-154.2001
2470.000000	122.210	-157.0392
2500.000000	122.222	-159.1935
2540.000000	122.215	-162.0746
2580.000000	122.179	-164.8996
2620.000000	122.119	-167.5859
2650.000000	122.066	-169.4747
2690.000000	121.991	-171.8176
2720.000000	121.940	-173.4608
2760.000000	121.886	-175.5447
2800.000000	121.851	-177.5673
2850.000000	121.836	-180.1153
2900.000000	121.845	-182.7808
2950.000000	121.865	-185.6169
3000.000000	121.881	-188.6223
3040.000000	121.882	-191.1151
3070.000000	121.873	-193.0149
3110.000000	121.847	-195.5682
3150.000000	121.805	-198.1290
3200.000000	121.731	-201.3146
3250.000000	121.636	-204.4436
3300.000000	121.520	-207.4746
3350.000000	121.387	-210.3851
3400.000000	121.242	-213.1805
3450.000000	121.088	-215.8781
3500.000000	120.929	-218.4903
3550.000000	120.763	-221.0241
3600.000000	120.591	-223.4863
3650.000000	120.411	-225.8811
3700.000000	120.223	-228.2012
3750.000000	120.023	-230.4235
3820.000000	119.723	-233.3061
3870.000000	119.496	-235.1538
3950.000000	119.128	-237.6575
4000.000000	118.907	-238.9078
4060.000000	118.669	-240.0766
4120.000000	118.484	-240.9022
4180.000000	118.374	-241.4745
4250.000000	118.363	-242.0796
4310.000000	118.450	-242.8280
4370.000000	118.608	-244.0060
4440.000000	118.842	-246.0555
4500.000000	119.059	-248.4099
4550.000000	119.238	-250.7863
4620.000000	119.473	-254.7547
4680.000000	119.646	-258.7911
4750.000000	119.789	-264.3122
4820.000000	119.820	-270.7295
4870.000000	119.740	-275.7738
4940.000000	119.438	-283.1093
5000.000000	118.974	-289.0964
5080.000000	118.061	-295.5083
5150.000000	117.056	-298.7522
5220.000000	115.999	-299.5007
5300.000000	114.954	-297.9045
5380.000000	114.287	-295.0239
5450.000000	114.052	-292.5281
5520.000000	114.062	-290.6725
5600.000000	114.241	-289.6140
5700.000000	114.551	-289.8128
5800.000000	114.854	-291.3119
5900.000000	115.110	-293.6491
6000.000000	115.311	-296.4705
6080.000000	115.433	-298.9109
6150.000000	115.517	-301.0992
6220.000000	115.586	-303.2863
6300.000000	115.651	-305.7344
6400.000000	115.728	-308.6535
6500.000000	115.814	-311.3732
6600.000000	115.925	-313.8936
6700.000000	116.077	-316.2480
6800.000000	116.284	-318.4907
6900.000000	116.558	-320.6986
7000.000000	116.907	-322.9637
7100.000000	117.336	-325.3784
7200.000000	117.853	-328.0417
7300.000000	118.464	-331.0854
7400.000000	119.169	-334.7073
7500.000000	119.951	-339.1809
7620.000000	120.932	-346.1244
7750.000000	121.917	-356.1273
7880.000000	122.646	-368.8958
8000.000000	122.949	-382.5308
8120.000000	122.827	-396.6173
8250.000000	122.239	-410.6694
8380.000000	121.289	-422.2664
8500.000000	120.227	-430.5612
8620.000000	119.099	-436.8466
8750.000000	117.883	-441.8629
8850.000000	116.980	-444.6813
9000.000000	115.699	-447.4391
9120.000000	114.759	-448.5545
9250.000000	113.851	-448.9141
9380.000000	113.069	-448.6219
9500.000000	112.461	-447.9382
9620.000000	111.955	-446.9787
9750.000000	111.514	-445.7316
9880.000000	111.176	-444.3497
10000.000000	110.945	-443.0141
10150.000000	110.751	-441.3304
10300.000000	110.646	-439.6692
10440.000000	110.622	-438.1415
10600.000000	110.677	-436.4219
10750.000000	110.809	-434.8605
10900.000000	111.020	-433.3973
11060.000000	111.332	-432.0157
11200.000000	111.677	-431.0180
11380.000000	112.222	-430.1066
11500.000000	112.647	-429.7876
11720.000000	113.542	-429.9767
11800.000000	113.898	-430.3445
12060.000000	115.135	-432.9312
12200.000000	115.824	-435.3825
12410.000000	116.826	-440.7758
12500.000000	117.221	-443.7993
12650.000000	117.792	-449.8275
12800.000000	118.214	-456.9814
13150.000000	118.429	-476.0962
13200.000000	118.366	-478.8504
13400.000000	117.895	-489.2748
13600.000000	117.126	-498.2359
13800.000000	116.134	-505.3644
14000.000000	114.988	-510.5452
14300.000000	113.096	-514.5305
14500.000000	111.796	-514.4757
14750.000000	110.272	-511.1730
15000.000000	109.148	-504.7155
15250.000000	108.819	-496.9471
15500.000000	109.290	-490.9747
15750.000000	110.019	-488.6398
16000.000000	110.670	-488.4672
16250.000000	111.430	-488.1729
16500.000000	112.633	-487.4969
16750.000000	114.359	-487.9119
17000.000000	116.397	-491.4140
17250.000000	118.410	-499.8829
17500.000000	120.070	-514.5876
17750.000000	121.132	-535.3376
18000.000000	121.480	-560.1131
18250.000000	121.143	-586.2952
18500.000000	120.198	-611.9874
18750.000000	118.676	-635.5269
19000.000000	116.573	-654.8184
19250.000000	113.928	-668.2350
19500.000000	110.842	-675.6210
19750.000000	107.445	-678.0008
20000.000000	103.869	-676.6989
