* Measurement data measured by REW V5.20.9
* Source: Input device not selected, no input selected, R, volume: no control
* Format: 512k Log Swept Sine, 1 sweep at -12.0 dBFS with no timing reference
* Dated: Sep 8, 2023 1:14:45 PM
* REW Settings:
*  C-weighting compensation: Off
*  Target level: 75.0 dB
* Note: ; 
* Measurement: u4s R
* Smoothing: 1/24 octave
* Frequency Step: 1/48 octave
* Start Frequency: 20.000 Hz
*
* Freq(Hz)	SPL(dB)	Phase(degrees)
20.000000	113.243	16.0433
20.299999	113.275	15.0380
20.600000	113.315	14.1161
20.900000	113.361	13.2681
21.200001	113.409	12.4873
21.400000	113.439	12.0038
21.799999	113.494	11.1227
22.000000	113.518	10.7198
22.400000	113.557	9.9673
22.700001	113.578	9.4203
23.000000	113.587	8.8620
23.299999	113.579	8.2881
23.600000	113.552	7.7155
24.000000	113.487	7.0033
24.299999	113.424	6.5448
24.700001	113.335	6.0407
25.000000	113.276	5.6994
25.400000	113.219	5.1930
25.799999	113.182	4.5194
26.200001	113.152	3.6467
26.500000	113.128	2.8989
26.900000	113.095	1.8506
27.200001	113.074	1.0670
27.600000	113.055	0.0417
28.000000	113.051	-0.9761
28.500000	113.056	-2.2396
29.000000	113.060	-3.4139
29.500000	113.062	-4.4060
30.000000	113.068	-5.2137
30.400000	113.075	-5.7788
30.700001	113.078	-6.1765
31.100000	113.074	-6.6748
31.500000	113.059	-7.1302
32.000000	113.031	-7.6525
32.500000	112.995	-8.1755
33.000000	112.952	-8.7516
33.500000	112.903	-9.4010
34.000000	112.851	-10.1501
34.500000	112.792	-11.0175
35.000000	112.715	-11.9208
35.500000	112.627	-12.6530
36.000000	112.567	-13.0939
36.500000	112.575	-13.4152
37.000000	112.643	-13.9934
37.500000	112.712	-15.0093
38.200001	112.705	-16.6916
38.700001	112.630	-17.5487
39.500000	112.515	-18.1412
40.000000	112.476	-18.4052
40.599998	112.433	-18.8701
41.200001	112.370	-19.4265
41.799999	112.299	-20.0083
42.500000	112.219	-20.7987
43.099998	112.147	-21.5885
43.700001	112.073	-22.3856
44.400002	111.997	-23.2456
45.000000	111.949	-23.9325
45.500000	111.917	-24.4778
46.200001	111.874	-25.1520
46.799999	111.840	-25.5862
47.500000	111.818	-25.9658
48.200001	111.814	-26.4222
48.700001	111.806	-26.8867
49.400002	111.763	-27.6712
50.000000	111.702	-28.3539
50.799999	111.610	-29.2519
51.500000	111.528	-30.0637
52.200001	111.447	-30.8403
53.000000	111.376	-31.6425
53.799999	111.330	-32.4394
54.500000	111.293	-33.1272
55.200001	111.252	-33.7223
56.000000	111.206	-34.2836
57.000000	111.151	-34.9432
58.000000	111.086	-35.6390
59.000000	111.017	-36.4076
60.000000	110.950	-37.2878
60.799999	110.896	-38.0459
61.500000	110.848	-38.6991
62.200001	110.800	-39.3065
63.000000	110.747	-39.9266
64.000000	110.681	-40.5868
65.000000	110.616	-41.1808
66.000000	110.547	-41.7849
67.000000	110.475	-42.4098
68.000000	110.410	-43.1074
69.000000	110.348	-43.8663
70.000000	110.295	-44.6556
71.000000	110.239	-45.4625
72.000000	110.173	-46.1648
73.000000	110.109	-46.7478
74.000000	110.048	-47.3206
75.000000	109.977	-47.8964
76.199997	109.890	-48.5151
77.500000	109.809	-49.1870
78.800003	109.730	-49.8835
80.000000	109.659	-50.5322
81.199997	109.586	-51.2165
82.500000	109.504	-51.9933
83.800003	109.426	-52.8141
85.000000	109.355	-53.5635
86.199997	109.289	-54.2356
87.500000	109.218	-54.8751
88.500000	109.159	-55.3077
90.000000	109.058	-55.9052
91.199997	108.970	-56.3809
92.500000	108.878	-56.9501
93.800003	108.795	-57.5720
95.000000	108.729	-58.1530
96.199997	108.675	-58.7345
97.500000	108.619	-59.3923
98.800003	108.554	-60.0485
100.000000	108.486	-60.6543
101.500000	108.396	-61.4055
103.000000	108.310	-62.1424
104.400002	108.236	-62.7780
106.000000	108.157	-63.3968
107.500000	108.081	-63.8747
109.000000	108.001	-64.2966
110.599998	107.908	-64.7979
112.000000	107.822	-65.3172
113.800003	107.721	-66.0894
115.000000	107.665	-66.6552
117.199997	107.576	-67.6586
118.000000	107.544	-67.9836
120.599998	107.423	-68.8821
122.000000	107.346	-69.2966
124.099998	107.232	-69.9108
125.000000	107.185	-70.1822
126.500000	107.112	-70.6433
128.000000	107.042	-71.1172
131.500000	106.889	-72.3275
132.000000	106.869	-72.5153
134.000000	106.796	-73.2645
136.000000	106.722	-73.9354
138.000000	106.636	-74.4897
140.000000	106.532	-74.9957
143.000000	106.365	-75.8708
145.000000	106.272	-76.5589
147.500000	106.197	-77.4120
150.000000	106.148	-78.0932
152.500000	106.088	-78.5836
155.000000	105.998	-79.0717
157.500000	105.890	-79.7384
160.000000	105.782	-80.5589
162.500000	105.683	-81.3925
165.000000	105.595	-82.1414
167.500000	105.516	-82.7833
170.000000	105.442	-83.3307
172.500000	105.365	-83.8192
175.000000	105.285	-84.2959
177.500000	105.203	-84.7980
180.000000	105.121	-85.3438
182.500000	105.040	-85.9445
185.000000	104.963	-86.6023
187.500000	104.893	-87.2733
190.000000	104.830	-87.8752
192.500000	104.769	-88.3572
195.000000	104.701	-88.7467
197.500000	104.622	-89.1246
200.000000	104.536	-89.5621
203.000000	104.434	-90.2117
206.000000	104.345	-90.9722
209.000000	104.274	-91.7589
212.000000	104.216	-92.4807
214.000000	104.176	-92.8947
218.000000	104.077	-93.5579
220.000000	104.018	-93.8282
224.000000	103.904	-94.3500
227.000000	103.828	-94.7677
230.000000	103.757	-95.2218
233.000000	103.693	-95.7303
236.000000	103.636	-96.3120
240.000000	103.565	-97.1448
243.000000	103.512	-97.7542
247.000000	103.437	-98.4872
250.000000	103.375	-98.9729
254.000000	103.288	-99.5764
258.000000	103.203	-100.1416
262.000000	103.125	-100.6867
265.000000	103.074	-101.1079
269.000000	103.023	-101.6908
272.000000	102.995	-102.1171
276.000000	102.961	-102.6438
280.000000	102.920	-103.1365
285.000000	102.856	-103.7247
290.000000	102.791	-104.3301
295.000000	102.727	-105.0147
300.000000	102.670	-105.7800
304.000000	102.645	-106.3860
307.000000	102.636	-106.8073
311.000000	102.633	-107.3192
315.000000	102.633	-107.7966
320.000000	102.625	-108.4176
325.000000	102.597	-109.1312
330.000000	102.553	-109.9075
335.000000	102.504	-110.7219
340.000000	102.461	-111.5410
345.000000	102.433	-112.2775
350.000000	102.415	-112.9018
355.000000	102.401	-113.4528
360.000000	102.388	-113.9976
365.000000	102.374	-114.5894
370.000000	102.356	-115.2219
375.000000	102.334	-115.8898
382.000000	102.295	-116.8843
387.000000	102.267	-117.5991
395.000000	102.237	-118.6594
400.000000	102.231	-119.2573
406.000000	102.230	-119.9396
412.000000	102.234	-120.5962
418.000000	102.234	-121.2342
425.000000	102.219	-122.0094
431.000000	102.200	-122.7522
437.000000	102.184	-123.5549
444.000000	102.179	-124.5120
450.000000	102.185	-125.2825
455.000000	102.192	-125.8745
462.000000	102.201	-126.6498
468.000000	102.212	-127.2789
475.000000	102.227	-128.0093
482.000000	102.240	-128.7952
487.000000	102.247	-129.4052
494.000000	102.255	-130.3064
500.000000	102.266	-131.0897
508.000000	102.281	-132.0880
515.000000	102.294	-132.8980
522.000000	102.311	-133.6670
530.000000	102.337	-134.5411
538.000000	102.363	-135.4647
545.000000	102.387	-136.3545
552.000000	102.412	-137.3759
560.000000	102.424	-138.8439
570.000000	102.341	-140.9536
580.000000	102.147	-142.2916
590.000000	102.020	-142.4972
600.000000	102.033	-142.5428
608.000000	102.092	-142.8827
615.000000	102.150	-143.4137
622.000000	102.212	-144.1103
630.000000	102.285	-145.0539
640.000000	102.377	-146.3630
650.000000	102.464	-147.6655
660.000000	102.545	-148.8389
670.000000	102.610	-149.8232
680.000000	102.653	-150.6309
690.000000	102.676	-151.3591
700.000000	102.688	-152.1145
710.000000	102.697	-152.9579
720.000000	102.711	-153.8904
730.000000	102.725	-154.8596
740.000000	102.732	-155.8185
750.000000	102.735	-156.7397
762.000000	102.733	-157.7260
775.000000	102.727	-158.5775
788.000000	102.726	-159.2780
800.000000	102.736	-159.8874
812.000000	102.759	-160.5005
825.000000	102.795	-161.2373
838.000000	102.839	-162.0752
850.000000	102.882	-162.8568
862.000000	102.922	-163.5841
875.000000	102.964	-164.2678
885.000000	102.995	-164.7009
900.000000	103.044	-165.2556
912.000000	103.087	-165.6789
925.000000	103.140	-166.1711
938.000000	103.207	-166.7463
950.000000	103.282	-167.3456
962.000000	103.364	-167.9666
975.000000	103.460	-168.6196
988.000000	103.556	-169.2219
1000.000000	103.642	-169.7260
1015.000000	103.748	-170.3105
1030.000000	103.857	-170.8874
1044.000000	103.963	-171.4642
1060.000000	104.094	-172.2172
1075.000000	104.232	-173.0299
1090.000000	104.379	-173.9276
1106.000000	104.539	-174.9204
1120.000000	104.676	-175.7837
1138.000000	104.845	-176.8682
1150.000000	104.954	-177.5737
1172.000000	105.146	-178.8938
1180.000000	105.214	-179.3945
1206.000000	105.439	178.8903
1220.000000	105.568	177.8891
1241.000000	105.771	176.2986
1250.000000	105.858	175.6002
1265.000000	105.998	174.4269
1280.000000	106.131	173.2532
1315.000000	106.405	170.6212
1320.000000	106.441	170.2631
1340.000000	106.577	168.8671
1360.000000	106.712	167.4805
1380.000000	106.851	166.0316
1400.000000	106.997	164.5091
1430.000000	107.216	162.1673
1450.000000	107.355	160.6384
1475.000000	107.514	158.8297
1500.000000	107.659	157.0981
1525.000000	107.796	155.3608
1550.000000	107.938	153.5836
1575.000000	108.092	151.7602
1600.000000	108.251	149.8964
1625.000000	108.405	148.0320
1650.000000	108.550	146.2023
1675.000000	108.687	144.3973
1700.000000	108.812	142.5701
1725.000000	108.925	140.6932
1750.000000	109.030	138.7769
1775.000000	109.130	136.8452
1800.000000	109.223	134.9219
1825.000000	109.307	132.9961
1850.000000	109.388	131.0311
1875.000000	109.468	129.0137
1900.000000	109.540	126.9625
1925.000000	109.598	124.9032
1950.000000	109.639	122.8672
1975.000000	109.660	120.8870
2000.000000	109.664	118.9709
2030.000000	109.650	116.7213
2060.000000	109.629	114.4740
2090.000000	109.606	112.2076
2120.000000	109.575	109.9379
2140.000000	109.547	108.4523
2180.000000	109.459	105.6492
2200.000000	109.397	104.3563
2240.000000	109.238	101.9666
2270.000000	109.103	100.2970
2300.000000	108.970	98.6937
2330.000000	108.844	97.1429
2360.000000	108.727	95.6556
2400.000000	108.578	93.8103
2430.000000	108.467	92.5444
2470.000000	108.309	91.0283
2500.000000	108.182	90.0249
2540.000000	108.007	88.8391
2580.000000	107.839	87.7640
2620.000000	107.687	86.7622
2650.000000	107.586	86.0674
2690.000000	107.472	85.2269
2720.000000	107.396	84.6594
2760.000000	107.302	83.9766
2800.000000	107.216	83.3736
2850.000000	107.119	82.7019
2900.000000	107.031	82.0973
2950.000000	106.952	81.5583
3000.000000	106.885	81.0529
3040.000000	106.846	80.6384
3070.000000	106.831	80.3221
3110.000000	106.830	79.8972
3150.000000	106.846	79.4611
3200.000000	106.884	78.8854
3250.000000	106.924	78.2928
3300.000000	106.956	77.7127
3350.000000	106.980	77.1370
3400.000000	107.005	76.5363
3450.000000	107.045	75.8816
3500.000000	107.110	75.1494
3550.000000	107.196	74.3200
3600.000000	107.296	73.4199
3650.000000	107.399	72.4839
3700.000000	107.492	71.5044
3750.000000	107.568	70.4653
3820.000000	107.655	68.9000
3870.000000	107.717	67.6754
3950.000000	107.841	65.4965
4000.000000	107.933	64.0087
4060.000000	108.045	62.1051
4120.000000	108.143	60.0698
4180.000000	108.219	57.8881
4250.000000	108.285	55.1068
4310.000000	108.332	52.5071
4370.000000	108.375	49.6926
4440.000000	108.417	46.0862
4500.000000	108.440	42.6651
4550.000000	108.440	39.5215
4620.000000	108.384	34.5704
4680.000000	108.242	29.7916
4750.000000	107.903	23.7728
4820.000000	107.314	17.8098
4870.000000	106.726	14.0876
4940.000000	105.701	10.4283
5000.000000	104.718	9.1849
5080.000000	103.449	10.1567
5150.000000	102.534	12.7653
5220.000000	101.871	16.1644
5300.000000	101.403	20.1915
5380.000000	101.166	23.9468
5450.000000	101.079	26.9941
5520.000000	101.062	29.9180
5600.000000	101.107	33.1502
5700.000000	101.270	36.9285
5800.000000	101.562	40.2004
5900.000000	101.986	42.6721
6000.000000	102.522	44.0616
6080.000000	102.985	44.3373
6150.000000	103.373	44.0148
6220.000000	103.718	43.2329
6300.000000	104.040	41.8622
6400.000000	104.309	39.6805
6500.000000	104.407	37.5528
6600.000000	104.403	36.4181
6700.000000	104.523	36.2509
6800.000000	104.728	35.5410
6900.000000	104.856	34.7831
7000.000000	105.003	34.5504
7100.000000	105.235	34.4958
7200.000000	105.543	34.1860
7300.000000	105.885	33.3110
7400.000000	106.202	31.8409
7500.000000	106.448	30.0353
7620.000000	106.644	28.0258
7750.000000	106.857	26.5227
7880.000000	107.231	25.0698
8000.000000	107.681	22.4645
8120.000000	108.028	18.1512
8250.000000	108.080	12.5733
8380.000000	107.764	7.9091
8500.000000	107.302	5.3234
8620.000000	106.825	4.1268
8750.000000	106.347	3.9370
8850.000000	106.027	4.3899
9000.000000	105.660	5.7863
9120.000000	105.480	7.3538
9250.000000	105.416	9.3358
9380.000000	105.498	11.0593
9500.000000	105.619	11.8058
9620.000000	105.678	12.0174
9750.000000	105.705	12.4039
9880.000000	105.810	12.8000
10000.000000	105.962	12.4330
10150.000000	106.050	10.9132
10300.000000	105.941	9.3685
10440.000000	105.713	8.4996
10600.000000	105.347	8.1901
10750.000000	104.916	8.6073
10900.000000	104.448	9.8123
11060.000000	103.988	11.7667
11200.000000	103.640	13.7087
11380.000000	103.207	16.4053
11500.000000	102.896	18.4974
11720.000000	102.312	23.4250
11800.000000	102.124	25.5786
12060.000000	101.722	33.1047
12200.000000	101.642	36.9750
12410.000000	101.643	42.0377
12500.000000	101.665	43.8828
12650.000000	101.691	46.5397
12800.000000	101.669	48.7839
13150.000000	101.301	53.4462
13200.000000	101.210	54.1587
13400.000000	100.770	57.4261
13600.000000	100.259	61.5714
13800.000000	99.741	66.7398
14000.000000	99.255	72.9215
14300.000000	98.659	83.5504
14500.000000	98.394	91.0109
14750.000000	98.228	100.3219
15000.000000	98.230	110.0454
15250.000000	98.604	120.8913
15500.000000	99.489	130.2651
15750.000000	100.359	135.8788
16000.000000	100.754	140.2287
16250.000000	101.117	148.5939
16500.000000	102.683	159.7466
16750.000000	105.423	166.5100
17000.000000	108.330	163.8777
17250.000000	110.428	150.1998
17500.000000	111.140	129.7755
17750.000000	110.613	110.4955
18000.000000	109.448	94.4969
18250.000000	107.893	79.2125
18500.000000	105.693	65.1909
18750.000000	102.704	55.9199
19000.000000	99.124	53.0706
19250.000000	95.310	55.7653
19500.000000	91.546	62.4903
19750.000000	87.985	71.9191
20000.000000	84.669	82.9514
