* Measurement data measured by REW V5.20.5
* Source: Input device not selected, no input selected, L, volume: no control
* Format: 512k Log Swept Sine, 1 sweep at -12.0 dBFS with no timing reference
* Dated: Jun 13, 2023 1:28:00 AM
* REW Settings:
*  C-weighting compensation: Off
*  Target level: 75.0 dB
* Note: ; 
* Measurement: vientoRAvivid L
* Smoothing: 1/24 octave
* Frequency Step: 1/48 octave
* Start Frequency: 20.000 Hz
*
* Freq(Hz)	SPL(dB)	Phase(degrees)
20.000000	106.824	25.8513
20.299999	106.849	25.1319
20.600000	106.862	24.4141
20.900000	106.864	23.7407
21.200001	106.858	23.1465
21.400000	106.853	22.7999
21.799999	106.850	22.2020
22.000000	106.852	21.9302
22.400000	106.867	21.3847
22.700001	106.882	20.9372
23.000000	106.893	20.4452
23.299999	106.894	19.9326
23.600000	106.885	19.4371
24.000000	106.858	18.8642
24.299999	106.835	18.5267
24.700001	106.813	18.1801
25.000000	106.809	17.9469
25.400000	106.818	17.5911
25.799999	106.833	17.1265
26.200001	106.843	16.5646
26.500000	106.843	16.1187
26.900000	106.834	15.5422
27.200001	106.825	15.1426
27.600000	106.815	14.6519
28.000000	106.808	14.1927
28.500000	106.804	13.6574
29.000000	106.806	13.1806
29.500000	106.818	12.7432
30.000000	106.835	12.2869
30.400000	106.843	11.9031
30.700001	106.843	11.6289
31.100000	106.834	11.3203
31.500000	106.824	11.0814
32.000000	106.812	10.8228
32.500000	106.793	10.5578
33.000000	106.762	10.3513
33.500000	106.734	10.2721
34.000000	106.738	10.1814
34.500000	106.763	9.8055
35.000000	106.764	9.0856
35.500000	106.714	8.2946
36.000000	106.636	7.7135
36.500000	106.569	7.3147
37.000000	106.515	6.9254
37.500000	106.447	6.6196
38.200001	106.371	6.8341
38.700001	106.415	7.2984
39.500000	106.629	6.9825
40.000000	106.687	5.9174
40.599998	106.581	4.7287
41.200001	106.377	4.6547
41.799999	106.259	5.4921
42.500000	106.311	6.0483
43.099998	106.359	5.0980
43.700001	106.196	3.3145
44.400002	105.666	2.6441
45.000000	105.226	5.1771
45.500000	105.291	8.6296
46.200001	106.114	11.1254
46.799999	106.868	8.2751
47.500000	107.104	1.2686
48.200001	106.577	-3.7510
48.700001	106.037	-3.8519
49.400002	105.720	-0.6987
50.000000	105.942	1.4089
50.799999	106.274	1.4588
51.500000	106.343	1.0018
52.200001	106.347	1.0670
53.000000	106.332	1.1892
53.799999	106.266	1.3387
54.500000	106.206	1.4943
55.200001	106.151	1.4741
56.000000	106.089	1.3174
57.000000	106.035	0.8585
58.000000	105.958	0.4221
59.000000	105.944	0.5045
60.000000	105.997	0.3444
60.799999	106.003	0.1369
61.500000	105.991	0.1024
62.200001	105.979	0.1023
63.000000	105.955	0.0624
64.000000	105.916	-0.0349
65.000000	105.877	-0.2591
66.000000	105.833	-0.5174
67.000000	105.804	-0.6834
68.000000	105.799	-0.7976
69.000000	105.802	-0.9105
70.000000	105.793	-0.9906
71.000000	105.773	-0.9938
72.000000	105.751	-0.9858
73.000000	105.723	-1.0493
74.000000	105.689	-1.0994
75.000000	105.672	-1.1472
76.199997	105.650	-1.3027
77.500000	105.612	-1.2370
78.800003	105.605	-1.0314
80.000000	105.607	-0.9579
81.199997	105.608	-1.0391
82.500000	105.608	-1.2777
83.800003	105.599	-1.7143
85.000000	105.546	-2.0272
86.199997	105.490	-1.9656
87.500000	105.460	-1.8811
88.500000	105.427	-1.9333
90.000000	105.383	-2.0428
91.199997	105.378	-2.3449
92.500000	105.389	-2.8914
93.800003	105.360	-3.4295
95.000000	105.314	-3.2044
96.199997	105.329	-2.6544
97.500000	105.331	-2.1878
98.800003	105.296	-1.6264
100.000000	105.277	-1.1619
101.500000	105.265	-1.1343
103.000000	105.231	-1.3516
104.400002	105.230	-1.5357
106.000000	105.253	-1.7625
107.500000	105.261	-1.9071
109.000000	105.252	-1.8842
110.599998	105.229	-1.8355
112.000000	105.199	-1.7540
113.800003	105.181	-1.7085
115.000000	105.169	-1.7819
117.199997	105.149	-1.8629
118.000000	105.148	-1.8874
120.599998	105.150	-1.9521
122.000000	105.155	-1.9619
124.099998	105.152	-1.9943
125.000000	105.145	-1.9890
126.500000	105.133	-1.9611
128.000000	105.121	-1.9339
131.500000	105.097	-1.8707
132.000000	105.093	-1.8658
134.000000	105.079	-1.8587
136.000000	105.063	-1.8966
138.000000	105.046	-1.9028
140.000000	105.037	-1.8519
143.000000	105.024	-1.7486
145.000000	105.009	-1.7033
147.500000	105.001	-1.6208
150.000000	105.013	-1.6191
152.500000	105.012	-1.6268
155.000000	105.001	-1.5898
157.500000	104.986	-1.5693
160.000000	104.975	-1.5693
162.500000	104.959	-1.5529
165.000000	104.939	-1.5527
167.500000	104.922	-1.6114
170.000000	104.913	-1.6347
172.500000	104.913	-1.5166
175.000000	104.913	-1.3886
177.500000	104.908	-1.3180
180.000000	104.904	-1.2846
182.500000	104.898	-1.2510
185.000000	104.879	-1.2124
187.500000	104.855	-1.1442
190.000000	104.847	-1.0613
192.500000	104.851	-1.0064
195.000000	104.853	-0.9727
197.500000	104.854	-0.9581
200.000000	104.855	-0.9581
203.000000	104.849	-0.9539
206.000000	104.831	-0.8820
209.000000	104.817	-0.7694
212.000000	104.809	-0.6915
214.000000	104.803	-0.6627
218.000000	104.795	-0.6337
220.000000	104.794	-0.6224
224.000000	104.792	-0.5678
227.000000	104.784	-0.5056
230.000000	104.769	-0.4680
233.000000	104.748	-0.4487
236.000000	104.732	-0.4089
240.000000	104.732	-0.3510
243.000000	104.739	-0.3122
247.000000	104.752	-0.2567
250.000000	104.750	-0.1847
254.000000	104.731	-0.0961
258.000000	104.710	-0.0635
262.000000	104.700	-0.0025
265.000000	104.698	0.0689
269.000000	104.699	0.1613
272.000000	104.698	0.2159
276.000000	104.693	0.2901
280.000000	104.678	0.4104
285.000000	104.667	0.4993
290.000000	104.667	0.4797
295.000000	104.667	0.5139
300.000000	104.659	0.5842
304.000000	104.647	0.6916
307.000000	104.643	0.7861
311.000000	104.640	0.8898
315.000000	104.636	0.9465
320.000000	104.631	0.9764
325.000000	104.623	1.0282
330.000000	104.614	1.1252
335.000000	104.609	1.2329
340.000000	104.602	1.3314
345.000000	104.594	1.3863
350.000000	104.589	1.4525
355.000000	104.588	1.5408
360.000000	104.588	1.6175
365.000000	104.579	1.7016
370.000000	104.567	1.7913
375.000000	104.558	1.8730
382.000000	104.551	1.9891
387.000000	104.547	2.0548
395.000000	104.540	2.1362
400.000000	104.534	2.2057
406.000000	104.525	2.3033
412.000000	104.520	2.4205
418.000000	104.516	2.5240
425.000000	104.513	2.6221
431.000000	104.507	2.6877
437.000000	104.501	2.7659
444.000000	104.491	2.8687
450.000000	104.482	2.9556
455.000000	104.473	3.0300
462.000000	104.463	3.1224
468.000000	104.457	3.2029
475.000000	104.451	3.3097
482.000000	104.437	3.3968
487.000000	104.421	3.4466
494.000000	104.395	3.5555
500.000000	104.375	3.6820
508.000000	104.357	3.8659
515.000000	104.347	4.0666
522.000000	104.338	4.2884
530.000000	104.328	4.5274
538.000000	104.316	4.7414
545.000000	104.308	4.9063
552.000000	104.302	5.0518
560.000000	104.298	5.2285
570.000000	104.299	5.4745
580.000000	104.296	5.7053
590.000000	104.287	5.9013
600.000000	104.277	6.0799
608.000000	104.269	6.2296
615.000000	104.262	6.3709
622.000000	104.256	6.5178
630.000000	104.250	6.6956
640.000000	104.239	6.9016
650.000000	104.218	7.0670
660.000000	104.187	7.2532
670.000000	104.152	7.4878
680.000000	104.118	7.7888
690.000000	104.094	8.1668
700.000000	104.081	8.5932
710.000000	104.074	9.0362
720.000000	104.064	9.4502
730.000000	104.051	9.8098
740.000000	104.037	10.1506
750.000000	104.023	10.5180
762.000000	104.014	11.0473
775.000000	104.012	11.7255
788.000000	104.016	12.4758
800.000000	104.024	13.1286
812.000000	104.037	13.7062
825.000000	104.056	14.3305
838.000000	104.087	15.0061
850.000000	104.125	15.6633
862.000000	104.169	16.3450
875.000000	104.223	17.0910
885.000000	104.271	17.6282
900.000000	104.349	18.3187
912.000000	104.416	18.7962
925.000000	104.493	19.2887
938.000000	104.573	19.7863
950.000000	104.650	20.2703
962.000000	104.730	20.7652
975.000000	104.822	21.2787
988.000000	104.921	21.7276
1000.000000	105.015	22.0595
1015.000000	105.138	22.3418
1030.000000	105.263	22.5621
1044.000000	105.378	22.7721
1060.000000	105.509	23.0289
1075.000000	105.632	23.2504
1090.000000	105.757	23.3933
1106.000000	105.890	23.4049
1120.000000	106.003	23.2973
1138.000000	106.142	23.0638
1150.000000	106.230	22.8988
1172.000000	106.379	22.6268
1180.000000	106.428	22.5333
1206.000000	106.573	22.1954
1220.000000	106.645	21.9430
1241.000000	106.750	21.4489
1250.000000	106.792	21.2098
1265.000000	106.855	20.8026
1280.000000	106.909	20.4181
1315.000000	107.001	19.7142
1320.000000	107.011	19.6293
1340.000000	107.043	19.2939
1360.000000	107.068	18.9339
1380.000000	107.093	18.5523
1400.000000	107.115	18.1713
1430.000000	107.135	17.6930
1450.000000	107.135	17.4893
1475.000000	107.127	17.3355
1500.000000	107.115	17.2246
1525.000000	107.107	17.1373
1550.000000	107.103	17.0954
1575.000000	107.101	17.1349
1600.000000	107.098	17.2953
1625.000000	107.094	17.5597
1650.000000	107.097	17.8976
1675.000000	107.110	18.2778
1700.000000	107.135	18.6658
1725.000000	107.172	19.0684
1750.000000	107.220	19.5240
1775.000000	107.275	20.0482
1800.000000	107.337	20.6131
1825.000000	107.408	21.1874
1850.000000	107.494	21.7485
1875.000000	107.597	22.2722
1900.000000	107.717	22.7457
1925.000000	107.850	23.1779
1950.000000	107.991	23.5828
1975.000000	108.136	23.9621
2000.000000	108.287	24.3075
2030.000000	108.477	24.6466
2060.000000	108.679	24.8848
2090.000000	108.892	25.0165
2120.000000	109.113	25.0576
2140.000000	109.263	25.0451
2180.000000	109.570	24.9440
2200.000000	109.726	24.8489
2240.000000	110.045	24.5285
2270.000000	110.290	24.1499
2300.000000	110.536	23.6291
2330.000000	110.784	22.9642
2360.000000	111.029	22.1797
2400.000000	111.346	20.9818
2430.000000	111.575	19.9767
2470.000000	111.867	18.5026
2500.000000	112.075	17.3081
2540.000000	112.338	15.6053
2580.000000	112.584	13.7727
2620.000000	112.813	11.8105
2650.000000	112.972	10.2572
2690.000000	113.161	8.0797
2720.000000	113.288	6.3791
2760.000000	113.436	4.0460
2800.000000	113.559	1.6577
2850.000000	113.676	-1.3616
2900.000000	113.747	-4.3791
2950.000000	113.773	-7.3492
3000.000000	113.759	-10.2075
3040.000000	113.724	-12.3983
3070.000000	113.686	-13.9831
3110.000000	113.622	-16.0090
3150.000000	113.543	-17.9298
3200.000000	113.428	-20.1746
3250.000000	113.296	-22.2158
3300.000000	113.155	-24.0523
3350.000000	113.011	-25.7200
3400.000000	112.873	-27.2402
3450.000000	112.743	-28.6420
3500.000000	112.625	-29.9470
3550.000000	112.519	-31.1544
3600.000000	112.426	-32.2717
3650.000000	112.347	-33.3129
3700.000000	112.284	-34.3135
3750.000000	112.240	-35.3195
3820.000000	112.208	-36.7728
3870.000000	112.202	-37.8617
3950.000000	112.214	-39.7053
4000.000000	112.230	-40.9139
4060.000000	112.257	-42.4291
4120.000000	112.288	-44.0449
4180.000000	112.324	-45.7726
4250.000000	112.366	-47.9088
4310.000000	112.394	-49.8435
4370.000000	112.407	-51.8876
4440.000000	112.394	-54.4106
4500.000000	112.357	-56.6653
4550.000000	112.310	-58.5907
4620.000000	112.220	-61.3250
4680.000000	112.119	-63.6599
4750.000000	111.968	-66.3101
4820.000000	111.780	-68.8118
4870.000000	111.623	-70.4559
4940.000000	111.377	-72.4804
5000.000000	111.154	-73.9213
5080.000000	110.864	-75.4113
5150.000000	110.640	-76.3576
5220.000000	110.466	-77.0426
5300.000000	110.336	-77.6338
5380.000000	110.265	-78.1859
5450.000000	110.239	-78.7178
5520.000000	110.243	-79.3024
5600.000000	110.282	-80.0546
5700.000000	110.382	-81.1916
5800.000000	110.527	-82.6458
5900.000000	110.707	-84.4680
6000.000000	110.908	-86.6578
6080.000000	111.077	-88.6720
6150.000000	111.228	-90.6291
6220.000000	111.381	-92.7653
6300.000000	111.557	-95.4288
6400.000000	111.771	-99.0866
6500.000000	111.962	-103.0724
6600.000000	112.116	-107.2606
6700.000000	112.227	-111.5659
6800.000000	112.286	-115.8952
6900.000000	112.303	-120.1144
7000.000000	112.296	-124.1681
7100.000000	112.282	-127.9910
7200.000000	112.279	-131.5264
7300.000000	112.298	-134.7548
7400.000000	112.355	-137.6755
7500.000000	112.478	-140.3384
7620.000000	112.753	-143.3889
7750.000000	113.236	-146.8502
7880.000000	113.942	-150.8965
8000.000000	114.803	-155.5689
8120.000000	115.839	-161.6791
8250.000000	117.079	-170.7249
8380.000000	118.274	-183.1438
8500.000000	119.121	-197.9172
8620.000000	119.535	-215.2081
8750.000000	119.406	-235.0875
8850.000000	118.905	-250.0779
9000.000000	117.564	-270.8244
9120.000000	116.031	-285.0780
9250.000000	113.983	-297.1567
9380.000000	111.678	-305.0305
9500.000000	109.516	-308.6664
9620.000000	107.503	-309.5317
9750.000000	105.610	-308.3200
9880.000000	104.034	-305.5525
10000.000000	102.864	-302.0364
10150.000000	101.807	-297.0645
10300.000000	101.159	-292.1775
10440.000000	100.850	-288.1261
10600.000000	100.768	-284.4862
10750.000000	100.879	-282.2849
10900.000000	101.094	-281.4131
11060.000000	101.355	-282.0117
11200.000000	101.541	-283.7174
11380.000000	101.634	-287.0257
11500.000000	101.578	-289.5364
11720.000000	101.239	-293.8701
11800.000000	101.056	-295.1878
12060.000000	100.339	-298.0840
12200.000000	99.928	-298.7495
12410.000000	99.340	-298.7887
12500.000000	99.115	-298.5016
12650.000000	98.791	-297.6936
12800.000000	98.533	-296.5864
13150.000000	98.206	-293.3781
13200.000000	98.193	-292.8860
13400.000000	98.214	-290.9592
13600.000000	98.324	-289.2110
13800.000000	98.499	-287.5228
14000.000000	98.774	-285.5907
14300.000000	99.569	-282.5789
14500.000000	100.407	-281.6699
14750.000000	101.651	-283.1690
15000.000000	102.834	-288.1594
15250.000000	103.706	-295.8405
15500.000000	104.188	-304.2891
15750.000000	104.419	-311.9471
16000.000000	104.594	-318.6146
16250.000000	104.822	-324.4201
16500.000000	105.264	-329.7937
16750.000000	106.027	-336.3998
17000.000000	106.945	-346.3716
17250.000000	107.582	-360.9100
17500.000000	107.519	-378.3256
17750.000000	106.677	-394.5744
18000.000000	105.365	-406.9882
18250.000000	104.017	-416.0474
18500.000000	102.868	-423.9103
18750.000000	101.838	-432.3484
19000.000000	100.670	-441.0564
19250.000000	99.299	-447.9817
19500.000000	98.125	-453.8280
19750.000000	97.225	-462.7452
20000.000000	95.927	-474.2869
