* Measurement data measured by REW V5.20.9
* Source: Input device not selected, no input selected, R, volume: no control
* Format: 512k Log Swept Sine, 1 sweep at -12.0 dBFS with no timing reference
* Dated: Oct 28, 2023 4:41:39 PM
* REW Settings:
*  C-weighting compensation: Off
*  Target level: 75.0 dB
* Note: ; 
* Measurement: volur L
* Smoothing: 1/24 octave
* Frequency Step: 1/48 octave
* Start Frequency: 20.000 Hz
*
* Freq(Hz)	SPL(dB)	Phase(degrees)
20.000000	104.557	9.1289
20.299999	104.613	8.4295
20.600000	104.662	7.5685
20.900000	104.697	6.6342
21.200001	104.718	5.7146
21.400000	104.730	5.1168
21.799999	104.750	3.9052
22.000000	104.755	3.2688
22.400000	104.741	1.9215
22.700001	104.695	0.9359
23.000000	104.616	0.1268
23.299999	104.524	-0.3800
23.600000	104.446	-0.5731
24.000000	104.409	-0.5204
24.299999	104.447	-0.5384
24.700001	104.558	-1.0260
25.000000	104.644	-1.8692
25.400000	104.703	-3.5293
25.799999	104.667	-5.4219
26.200001	104.548	-7.1299
26.500000	104.432	-8.1481
26.900000	104.279	-9.1473
27.200001	104.186	-9.7060
27.600000	104.106	-10.3352
28.000000	104.081	-10.9810
28.500000	104.117	-12.0067
29.000000	104.196	-13.4228
29.500000	104.274	-15.1708
30.000000	104.330	-16.9708
30.400000	104.370	-18.3107
30.700001	104.403	-19.2752
31.100000	104.441	-20.5758
31.500000	104.446	-21.8477
32.000000	104.380	-23.0092
32.500000	104.292	-23.1923
33.000000	104.315	-22.6105
33.500000	104.485	-22.2980
34.000000	104.658	-23.0966
34.500000	104.663	-24.6605
35.000000	104.455	-25.9073
35.500000	104.130	-25.9715
36.000000	103.844	-24.8325
36.500000	103.730	-23.1400
37.000000	103.844	-22.0478
37.500000	104.090	-22.7880
38.200001	104.204	-27.6508
38.700001	103.843	-32.0414
39.500000	102.706	-33.9635
40.000000	102.330	-31.8141
40.599998	102.615	-30.4547
41.200001	103.022	-33.4101
41.799999	103.013	-38.1604
42.500000	102.604	-41.2832
43.099998	102.331	-41.2666
43.700001	102.314	-40.2906
44.400002	102.536	-39.3434
45.000000	102.802	-39.3049
45.500000	102.975	-39.8316
46.200001	103.078	-40.6643
46.799999	103.108	-40.9029
47.500000	103.189	-41.0581
48.200001	103.285	-41.8912
48.700001	103.299	-43.0291
49.400002	103.161	-44.9265
50.000000	102.895	-45.9227
50.799999	102.568	-45.5265
51.500000	102.532	-44.8882
52.200001	102.600	-45.3802
53.000000	102.595	-46.5794
53.799999	102.589	-47.5114
54.500000	102.640	-48.5679
55.200001	102.683	-50.1100
56.000000	102.662	-52.2728
57.000000	102.463	-54.8620
58.000000	102.164	-55.9819
59.000000	102.033	-55.9949
60.000000	102.078	-56.4858
60.799999	102.112	-57.4623
61.500000	102.094	-58.3748
62.200001	102.056	-59.0121
63.000000	102.053	-59.4901
64.000000	102.098	-60.4077
65.000000	102.074	-61.5836
66.000000	102.009	-62.2930
67.000000	101.976	-62.8894
68.000000	101.915	-63.5450
69.000000	101.833	-63.9710
70.000000	101.762	-64.3016
71.000000	101.708	-64.6708
72.000000	101.667	-65.3952
73.000000	101.571	-66.5170
74.000000	101.409	-67.4906
75.000000	101.265	-68.1711
76.199997	101.162	-69.1768
77.500000	101.051	-70.6523
78.800003	100.926	-72.0808
80.000000	100.787	-73.0265
81.199997	100.721	-73.2389
82.500000	100.789	-73.8383
83.800003	100.800	-75.1953
85.000000	100.715	-76.2725
86.199997	100.620	-77.0198
87.500000	100.522	-77.7869
88.500000	100.440	-78.3535
90.000000	100.311	-79.1352
91.199997	100.210	-79.7606
92.500000	100.102	-80.5134
93.800003	99.999	-81.3316
95.000000	99.920	-82.1651
96.199997	99.851	-83.0671
97.500000	99.776	-83.9917
98.800003	99.696	-84.6879
100.000000	99.640	-85.1752
101.500000	99.564	-86.0493
103.000000	99.437	-86.9745
104.400002	99.345	-87.7529
106.000000	99.293	-88.7602
107.500000	99.268	-89.5523
109.000000	99.255	-90.1595
110.599998	99.201	-90.7808
112.000000	99.104	-91.3445
113.800003	98.963	-92.3209
115.000000	98.867	-93.2029
117.199997	98.707	-94.6080
118.000000	98.674	-94.9720
120.599998	98.608	-96.2305
122.000000	98.542	-97.0260
124.099998	98.416	-98.1901
125.000000	98.371	-98.6850
126.500000	98.301	-99.4985
128.000000	98.235	-100.1633
131.500000	98.117	-101.5168
132.000000	98.102	-101.7374
134.000000	98.049	-102.7340
136.000000	97.996	-103.8417
138.000000	97.922	-104.8923
140.000000	97.827	-105.7168
143.000000	97.712	-106.8786
145.000000	97.626	-107.7406
147.500000	97.510	-108.6522
150.000000	97.428	-109.5865
152.500000	97.381	-110.6527
155.000000	97.351	-111.7308
157.500000	97.278	-112.6176
160.000000	97.174	-113.3981
162.500000	97.076	-114.4386
165.000000	96.999	-115.5904
167.500000	96.953	-116.4312
170.000000	96.912	-117.1474
172.500000	96.851	-117.9292
175.000000	96.780	-118.8155
177.500000	96.716	-119.7074
180.000000	96.645	-120.6073
182.500000	96.586	-121.4850
185.000000	96.550	-122.5184
187.500000	96.498	-123.5665
190.000000	96.429	-124.4433
192.500000	96.364	-125.2386
195.000000	96.314	-126.0369
197.500000	96.277	-126.7974
200.000000	96.240	-127.5119
203.000000	96.163	-128.3979
206.000000	96.068	-129.2969
209.000000	96.006	-130.2500
212.000000	95.958	-131.2141
214.000000	95.923	-131.8336
218.000000	95.857	-133.1034
220.000000	95.816	-133.7102
224.000000	95.677	-134.6236
227.000000	95.572	-135.3563
230.000000	95.500	-136.3839
233.000000	95.438	-137.3292
236.000000	95.373	-137.9111
240.000000	95.293	-138.7250
243.000000	95.240	-139.4895
247.000000	95.178	-140.5954
250.000000	95.125	-141.5401
254.000000	95.086	-142.6741
258.000000	95.032	-143.6776
262.000000	94.935	-144.4884
265.000000	94.876	-145.0988
269.000000	94.801	-146.1089
272.000000	94.741	-146.9726
276.000000	94.658	-147.8820
280.000000	94.588	-148.6138
285.000000	94.510	-149.7653
290.000000	94.435	-150.8797
295.000000	94.375	-151.9182
300.000000	94.313	-153.0158
304.000000	94.255	-153.8932
307.000000	94.217	-154.5383
311.000000	94.164	-155.4010
315.000000	94.110	-156.2876
320.000000	94.049	-157.3693
325.000000	93.971	-158.3768
330.000000	93.884	-159.3863
335.000000	93.831	-160.3587
340.000000	93.787	-161.1853
345.000000	93.737	-161.8615
350.000000	93.700	-162.6950
355.000000	93.661	-163.9136
360.000000	93.610	-164.9492
365.000000	93.552	-165.7875
370.000000	93.495	-166.7010
375.000000	93.438	-167.5888
382.000000	93.368	-168.6171
387.000000	93.347	-169.3327
395.000000	93.291	-170.7244
400.000000	93.235	-171.5794
406.000000	93.181	-172.5644
412.000000	93.128	-173.5524
418.000000	93.081	-174.5616
425.000000	93.054	-175.6136
431.000000	93.022	-176.4016
437.000000	92.979	-177.1525
444.000000	92.928	-178.0569
450.000000	92.884	-178.8708
455.000000	92.845	-179.5289
462.000000	92.785	-180.4189
468.000000	92.732	-181.2419
475.000000	92.683	-182.2193
482.000000	92.648	-183.1151
487.000000	92.624	-183.7292
494.000000	92.591	-184.5559
500.000000	92.557	-185.2379
508.000000	92.498	-186.1699
515.000000	92.453	-187.0070
522.000000	92.411	-187.7937
530.000000	92.364	-188.6668
538.000000	92.315	-189.5175
545.000000	92.270	-190.1837
552.000000	92.223	-190.8215
560.000000	92.169	-191.5955
570.000000	92.095	-192.5995
580.000000	92.029	-193.5818
590.000000	91.959	-194.4703
600.000000	91.896	-195.3033
608.000000	91.852	-195.9573
615.000000	91.813	-196.5345
622.000000	91.773	-197.1113
630.000000	91.725	-197.7942
640.000000	91.665	-198.6628
650.000000	91.606	-199.4651
660.000000	91.552	-200.2363
670.000000	91.498	-200.9146
680.000000	91.440	-201.5259
690.000000	91.388	-202.1271
700.000000	91.339	-202.7290
710.000000	91.291	-203.3579
720.000000	91.251	-204.0278
730.000000	91.209	-204.6591
740.000000	91.164	-205.2290
750.000000	91.132	-205.7633
762.000000	91.100	-206.3577
775.000000	91.057	-206.9330
788.000000	91.016	-207.4223
800.000000	90.987	-207.8718
812.000000	90.968	-208.3935
825.000000	90.957	-208.9620
838.000000	90.950	-209.4915
850.000000	90.947	-209.9447
862.000000	90.943	-210.3429
875.000000	90.945	-210.6956
885.000000	90.956	-210.9166
900.000000	90.981	-211.2625
912.000000	91.007	-211.6028
925.000000	91.043	-212.0449
938.000000	91.089	-212.5071
950.000000	91.142	-212.9115
962.000000	91.200	-213.2879
975.000000	91.265	-213.6502
988.000000	91.331	-213.9640
1000.000000	91.397	-214.2584
1015.000000	91.494	-214.7543
1030.000000	91.606	-215.3571
1044.000000	91.722	-215.9640
1060.000000	91.856	-216.7076
1075.000000	91.983	-217.4228
1090.000000	92.117	-218.1557
1106.000000	92.261	-218.9731
1120.000000	92.379	-219.7005
1138.000000	92.521	-220.6652
1150.000000	92.613	-221.3602
1172.000000	92.787	-222.7458
1180.000000	92.856	-223.2692
1206.000000	93.081	-225.0632
1220.000000	93.195	-226.0826
1241.000000	93.358	-227.6349
1250.000000	93.423	-228.2890
1265.000000	93.525	-229.3512
1280.000000	93.623	-230.4179
1315.000000	93.838	-233.0349
1320.000000	93.870	-233.4137
1340.000000	93.998	-234.9451
1360.000000	94.124	-236.5272
1380.000000	94.247	-238.0876
1400.000000	94.364	-239.5775
1430.000000	94.516	-241.7380
1450.000000	94.613	-243.1409
1475.000000	94.730	-244.8822
1500.000000	94.853	-246.6477
1525.000000	94.986	-248.4413
1550.000000	95.121	-250.2212
1575.000000	95.253	-251.9644
1600.000000	95.381	-253.6387
1625.000000	95.511	-255.2769
1650.000000	95.649	-256.9611
1675.000000	95.794	-258.6995
1700.000000	95.944	-260.4627
1725.000000	96.095	-262.2269
1750.000000	96.247	-263.9953
1775.000000	96.398	-265.7626
1800.000000	96.554	-267.5491
1825.000000	96.721	-269.4092
1850.000000	96.899	-271.3683
1875.000000	97.081	-273.4156
1900.000000	97.263	-275.5345
1925.000000	97.442	-277.7148
1950.000000	97.613	-279.9444
1975.000000	97.774	-282.2200
2000.000000	97.927	-284.5632
2030.000000	98.097	-287.4937
2060.000000	98.255	-290.5703
2090.000000	98.399	-293.7587
2120.000000	98.524	-297.0128
2140.000000	98.592	-299.1924
2180.000000	98.683	-303.5352
2200.000000	98.704	-305.6873
2240.000000	98.707	-309.9250
2270.000000	98.682	-313.0405
2300.000000	98.638	-316.0667
2330.000000	98.579	-318.9797
2360.000000	98.508	-321.7774
2400.000000	98.402	-325.3199
2430.000000	98.319	-327.8452
2470.000000	98.210	-331.0918
2500.000000	98.131	-333.4825
2540.000000	98.026	-336.6312
2580.000000	97.913	-339.6870
2620.000000	97.784	-342.6105
2650.000000	97.676	-344.7022
2690.000000	97.525	-347.3415
2720.000000	97.410	-349.2098
2760.000000	97.261	-351.5928
2800.000000	97.129	-353.8925
2850.000000	96.993	-356.6726
2900.000000	96.879	-359.3432
2950.000000	96.776	-361.8561
3000.000000	96.679	-364.2342
3040.000000	96.608	-366.0836
3070.000000	96.559	-367.4462
3110.000000	96.504	-369.2337
3150.000000	96.465	-371.0113
3200.000000	96.438	-373.2414
3250.000000	96.434	-375.4735
3300.000000	96.437	-377.6902
3350.000000	96.440	-379.8771
3400.000000	96.452	-382.0499
3450.000000	96.474	-384.2339
3500.000000	96.510	-386.4273
3550.000000	96.558	-388.6251
3600.000000	96.627	-390.8444
3650.000000	96.718	-393.1083
3700.000000	96.831	-395.4313
3750.000000	96.963	-397.8161
3820.000000	97.172	-401.2405
3870.000000	97.327	-403.7481
3950.000000	97.576	-407.9937
4000.000000	97.737	-410.8847
4060.000000	97.941	-414.6138
4120.000000	98.155	-418.5977
4180.000000	98.372	-422.7793
4250.000000	98.618	-427.8591
4310.000000	98.810	-432.3574
4370.000000	98.977	-436.9714
4440.000000	99.144	-442.5262
4500.000000	99.271	-447.5172
4550.000000	99.364	-451.9213
4620.000000	99.473	-458.5189
4680.000000	99.527	-464.5329
4750.000000	99.496	-471.7533
4820.000000	99.323	-478.7923
4870.000000	99.106	-483.4548
4940.000000	98.692	-489.1942
5000.000000	98.275	-493.3069
5080.000000	97.721	-497.7706
5150.000000	97.299	-500.9764
5220.000000	96.953	-503.7884
5300.000000	96.636	-506.7455
5380.000000	96.369	-509.5211
5450.000000	96.155	-511.8039
5520.000000	95.955	-513.9391
5600.000000	95.747	-516.2217
5700.000000	95.533	-518.9885
5800.000000	95.378	-521.7781
5900.000000	95.283	-524.6498
6000.000000	95.223	-527.6776
6080.000000	95.172	-530.2319
6150.000000	95.110	-532.5890
6220.000000	95.021	-535.0570
6300.000000	94.875	-537.9353
6400.000000	94.607	-541.3792
6500.000000	94.252	-544.3152
6600.000000	93.852	-546.4617
6700.000000	93.474	-547.8058
6800.000000	93.160	-548.6476
6900.000000	92.910	-549.2997
7000.000000	92.707	-549.8483
7100.000000	92.541	-550.2621
7200.000000	92.417	-550.5573
7300.000000	92.329	-550.7845
7400.000000	92.264	-550.9153
7500.000000	92.227	-550.9350
7620.000000	92.237	-550.8894
7750.000000	92.308	-550.8806
7880.000000	92.432	-550.8516
8000.000000	92.612	-550.7721
8120.000000	92.868	-550.7759
8250.000000	93.235	-551.0094
8380.000000	93.689	-551.6929
8500.000000	94.162	-553.0183
8620.000000	94.653	-555.2563
8750.000000	95.148	-558.8705
8850.000000	95.454	-562.4542
9000.000000	95.706	-568.6767
9120.000000	95.697	-573.7694
9250.000000	95.498	-578.7737
9380.000000	95.158	-582.9094
9500.000000	94.778	-585.8796
9620.000000	94.382	-588.1102
9750.000000	93.968	-589.8356
9880.000000	93.587	-590.9557
10000.000000	93.265	-591.5231
10150.000000	92.909	-591.7346
10300.000000	92.609	-591.5806
10440.000000	92.385	-591.2526
10600.000000	92.200	-590.7965
10750.000000	92.078	-590.3315
10900.000000	91.987	-589.7703
11060.000000	91.913	-589.0279
11200.000000	91.863	-588.2266
11380.000000	91.836	-586.8767
11500.000000	91.859	-585.7550
11720.000000	92.032	-583.2985
11800.000000	92.151	-582.3148
12060.000000	92.833	-579.4155
12200.000000	93.374	-578.5933
12410.000000	94.326	-579.0240
12500.000000	94.761	-579.9453
12650.000000	95.478	-582.6092
12800.000000	96.122	-586.7217
13150.000000	96.939	-600.4819
13200.000000	96.953	-602.6277
13400.000000	96.762	-610.7104
13600.000000	96.259	-617.2173
13800.000000	95.604	-621.7540
14000.000000	94.967	-624.5050
14300.000000	94.280	-626.4396
14500.000000	94.049	-627.0436
14750.000000	94.003	-627.4100
15000.000000	94.247	-627.6326
15250.000000	94.838	-628.5521
15500.000000	95.739	-631.4169
15750.000000	96.828	-637.0494
16000.000000	97.985	-645.9483
16250.000000	99.032	-658.7101
16500.000000	99.658	-675.3419
16750.000000	99.596	-693.9434
17000.000000	98.827	-711.3351
17250.000000	97.594	-725.3572
17500.000000	96.254	-735.8881
17750.000000	95.118	-744.2141
18000.000000	94.348	-752.2299
18250.000000	93.919	-761.7546
18500.000000	93.679	-774.3250
18750.000000	93.336	-790.9855
19000.000000	92.501	-811.0322
19250.000000	90.903	-831.3025
19500.000000	88.576	-848.4034
19750.000000	85.802	-861.3577
20000.000000	82.901	-871.2005
