* Measurement data measured by REW V5.20.9
* Source: Input device not selected, no input selected, R, volume: no control
* Format: 512k Log Swept Sine, 1 sweep at -12.0 dBFS with no timing reference
* Dated: Oct 28, 2023 4:40:41 PM
* REW Settings:
*  C-weighting compensation: Off
*  Target level: 75.0 dB
* Note: ; 
* Measurement: volur R
* Smoothing: 1/24 octave
* Frequency Step: 1/48 octave
* Start Frequency: 20.000 Hz
*
* Freq(Hz)	SPL(dB)	Phase(degrees)
20.000000	104.887	6.1406
20.299999	104.864	6.6541
20.600000	104.831	7.4057
20.900000	104.819	8.1336
21.200001	104.823	8.4959
21.400000	104.810	8.4484
21.799999	104.709	7.8428
22.000000	104.613	7.4396
22.400000	104.355	6.8386
22.700001	104.163	6.6946
23.000000	104.039	6.6470
23.299999	104.000	6.3227
23.600000	104.020	5.4592
24.000000	104.064	3.3578
24.299999	104.054	1.3303
24.700001	103.966	-1.3682
25.000000	103.874	-3.0124
25.400000	103.786	-4.5321
25.799999	103.797	-5.5451
26.200001	103.900	-6.4746
26.500000	104.003	-7.2463
26.900000	104.134	-8.3253
27.200001	104.215	-9.0715
27.600000	104.303	-9.9025
28.000000	104.370	-10.5832
28.500000	104.411	-11.3256
29.000000	104.386	-11.8704
29.500000	104.322	-12.0674
30.000000	104.275	-12.1141
30.400000	104.259	-12.3919
30.700001	104.242	-12.8645
31.100000	104.182	-13.7808
31.500000	104.072	-14.7896
32.000000	103.911	-15.8676
32.500000	103.802	-16.8821
33.000000	103.755	-18.3435
33.500000	103.685	-20.3223
34.000000	103.543	-22.1480
34.500000	103.400	-23.1742
35.000000	103.365	-23.6083
35.500000	103.431	-24.1721
36.000000	103.481	-24.9649
36.500000	103.479	-25.2952
37.000000	103.527	-24.7867
37.500000	103.730	-24.1870
38.200001	104.072	-25.0283
38.700001	104.133	-26.5331
39.500000	103.934	-27.6469
40.000000	103.844	-27.4356
40.599998	103.838	-27.5597
41.200001	103.791	-28.6009
41.799999	103.628	-29.8671
42.500000	103.373	-31.0013
43.099998	103.171	-31.8210
43.700001	103.009	-32.6679
44.400002	102.882	-33.9921
45.000000	102.776	-35.6264
45.500000	102.638	-37.0632
46.200001	102.391	-38.5077
46.799999	102.203	-39.0215
47.500000	102.072	-38.8486
48.200001	102.139	-38.0692
48.700001	102.343	-37.8619
49.400002	102.667	-39.2311
50.000000	102.752	-41.4874
50.799999	102.561	-43.5153
51.500000	102.395	-43.5723
52.200001	102.398	-43.2726
53.000000	102.511	-43.7022
53.799999	102.590	-45.0336
54.500000	102.553	-46.3446
55.200001	102.472	-46.9916
56.000000	102.506	-47.1698
57.000000	102.672	-48.6032
58.000000	102.600	-50.8550
59.000000	102.356	-51.7528
60.000000	102.177	-51.7056
60.799999	102.100	-51.7086
61.500000	102.058	-52.0496
62.200001	101.994	-52.7136
63.000000	101.899	-53.4210
64.000000	101.870	-54.3253
65.000000	101.876	-55.9537
66.000000	101.858	-57.4256
67.000000	101.894	-58.9539
68.000000	101.839	-60.5637
69.000000	101.746	-61.2943
70.000000	101.729	-61.8483
71.000000	101.708	-62.8834
72.000000	101.608	-64.1781
73.000000	101.431	-65.1876
74.000000	101.255	-65.6184
75.000000	101.151	-65.7403
76.199997	101.107	-66.0261
77.500000	101.063	-66.8052
78.800003	100.930	-67.5240
80.000000	100.837	-67.9008
81.199997	100.770	-68.7726
82.500000	100.666	-69.8764
83.800003	100.595	-71.0699
85.000000	100.531	-72.3786
86.199997	100.445	-73.6304
87.500000	100.348	-74.7090
88.500000	100.296	-75.4140
90.000000	100.252	-76.5538
91.199997	100.218	-77.6290
92.500000	100.147	-78.7529
93.800003	100.068	-79.4559
95.000000	100.029	-79.7822
96.199997	100.046	-79.9376
97.500000	100.147	-80.4524
98.800003	100.225	-81.9412
100.000000	100.158	-83.7558
101.500000	99.915	-85.3077
103.000000	99.713	-85.7308
104.400002	99.656	-86.0097
106.000000	99.629	-86.7714
107.500000	99.565	-87.4665
109.000000	99.496	-88.0396
110.599998	99.429	-88.8660
112.000000	99.344	-89.9002
113.800003	99.183	-91.2073
115.000000	99.075	-91.8347
117.199997	98.950	-92.6228
118.000000	98.919	-92.9442
120.599998	98.797	-93.6763
122.000000	98.794	-93.9193
124.099998	98.819	-94.9653
125.000000	98.800	-95.6225
126.500000	98.698	-96.7545
128.000000	98.528	-97.5581
131.500000	98.304	-98.5700
132.000000	98.299	-98.8382
134.000000	98.250	-100.0773
136.000000	98.152	-101.1824
138.000000	97.992	-101.9746
140.000000	97.880	-102.4958
143.000000	97.826	-104.2709
145.000000	97.821	-105.6065
147.500000	97.786	-107.2772
150.000000	97.689	-108.3151
152.500000	97.614	-108.9984
155.000000	97.561	-109.9864
157.500000	97.484	-111.3006
160.000000	97.418	-112.4985
162.500000	97.366	-113.5413
165.000000	97.315	-114.5717
167.500000	97.246	-115.7592
170.000000	97.201	-116.8260
172.500000	97.171	-117.6772
175.000000	97.089	-118.4050
177.500000	96.968	-119.1602
180.000000	96.881	-120.3520
182.500000	96.798	-121.6642
185.000000	96.733	-122.4325
187.500000	96.683	-122.8601
190.000000	96.614	-123.2739
192.500000	96.529	-123.8227
195.000000	96.445	-124.6803
197.500000	96.355	-125.7829
200.000000	96.272	-126.8128
203.000000	96.195	-127.6665
206.000000	96.140	-128.2920
209.000000	96.075	-129.2605
212.000000	96.001	-130.3243
214.000000	95.963	-130.8532
218.000000	95.875	-131.8959
220.000000	95.819	-132.7221
224.000000	95.747	-134.6971
227.000000	95.725	-135.8860
230.000000	95.713	-136.8006
233.000000	95.728	-137.8359
236.000000	95.722	-138.9183
240.000000	95.642	-139.9211
243.000000	95.549	-140.4176
247.000000	95.431	-141.1306
250.000000	95.353	-141.9006
254.000000	95.252	-143.0410
258.000000	95.189	-144.1243
262.000000	95.169	-145.2701
265.000000	95.152	-146.1708
269.000000	95.122	-147.3358
272.000000	95.100	-148.1431
276.000000	95.060	-149.1640
280.000000	95.000	-150.1400
285.000000	94.918	-151.3556
290.000000	94.837	-152.5955
295.000000	94.768	-153.8433
300.000000	94.708	-155.0428
304.000000	94.643	-155.9651
307.000000	94.585	-156.6281
311.000000	94.506	-157.3636
315.000000	94.454	-157.9188
320.000000	94.460	-158.8911
325.000000	94.365	-160.8363
330.000000	94.164	-161.7806
335.000000	94.054	-162.3688
340.000000	94.017	-163.2581
345.000000	94.035	-164.1559
350.000000	93.969	-165.0490
355.000000	93.853	-165.7451
360.000000	93.836	-166.6214
365.000000	93.802	-167.7107
370.000000	93.743	-168.5790
375.000000	93.703	-169.6607
382.000000	93.660	-171.2428
387.000000	93.637	-172.1318
395.000000	93.573	-173.4609
400.000000	93.521	-174.5120
406.000000	93.458	-175.7215
412.000000	93.438	-176.7872
418.000000	93.429	-177.8070
425.000000	93.355	-178.8453
431.000000	93.287	-179.8527
437.000000	93.267	-180.9659
444.000000	93.225	-181.9068
450.000000	93.152	-182.7143
455.000000	93.111	-183.6927
462.000000	93.057	-184.8092
468.000000	92.941	-185.1867
475.000000	92.862	-185.2012
482.000000	92.845	-185.4271
487.000000	92.817	-186.3740
494.000000	92.749	-188.1667
500.000000	92.677	-189.6477
508.000000	92.594	-190.8444
515.000000	92.501	-191.6010
522.000000	92.432	-192.4798
530.000000	92.418	-193.4632
538.000000	92.419	-194.4310
545.000000	92.422	-195.4143
552.000000	92.374	-196.3342
560.000000	92.324	-197.2038
570.000000	92.253	-198.1632
580.000000	92.192	-199.1550
590.000000	92.120	-200.4785
600.000000	92.054	-201.4752
608.000000	92.018	-202.1453
615.000000	91.990	-202.7106
622.000000	91.951	-203.3318
630.000000	91.901	-204.0910
640.000000	91.836	-204.9128
650.000000	91.758	-205.7025
660.000000	91.678	-206.5663
670.000000	91.636	-207.4975
680.000000	91.583	-208.3652
690.000000	91.531	-209.1859
700.000000	91.481	-209.9289
710.000000	91.434	-210.6110
720.000000	91.389	-211.2772
730.000000	91.342	-211.8973
740.000000	91.297	-212.5130
750.000000	91.260	-213.1359
762.000000	91.228	-213.8115
775.000000	91.200	-214.5027
788.000000	91.173	-215.2437
800.000000	91.153	-215.9113
812.000000	91.137	-216.5326
825.000000	91.119	-217.1250
838.000000	91.106	-217.6439
850.000000	91.102	-218.0506
862.000000	91.103	-218.4538
875.000000	91.113	-218.9217
885.000000	91.123	-219.3106
900.000000	91.140	-219.9330
912.000000	91.160	-220.3732
925.000000	91.188	-220.7527
938.000000	91.220	-221.0718
950.000000	91.260	-221.3644
962.000000	91.308	-221.7036
975.000000	91.363	-222.1328
988.000000	91.417	-222.6526
1000.000000	91.473	-223.1903
1015.000000	91.564	-223.8068
1030.000000	91.666	-224.3750
1044.000000	91.755	-224.9491
1060.000000	91.849	-225.6256
1075.000000	91.957	-226.2828
1090.000000	92.077	-227.0361
1106.000000	92.208	-227.9732
1120.000000	92.327	-228.8267
1138.000000	92.478	-229.9524
1150.000000	92.577	-230.6825
1172.000000	92.749	-231.9986
1180.000000	92.810	-232.4950
1206.000000	93.008	-234.2679
1220.000000	93.111	-235.2915
1241.000000	93.264	-236.8944
1250.000000	93.326	-237.5869
1265.000000	93.426	-238.6850
1280.000000	93.524	-239.7471
1315.000000	93.736	-242.3808
1320.000000	93.763	-242.7622
1340.000000	93.868	-244.2813
1360.000000	93.975	-245.8045
1380.000000	94.079	-247.3150
1400.000000	94.180	-248.7775
1430.000000	94.330	-250.9572
1450.000000	94.434	-252.3984
1475.000000	94.569	-254.1321
1500.000000	94.713	-255.8334
1525.000000	94.848	-257.6240
1550.000000	94.982	-259.3634
1575.000000	95.129	-260.9821
1600.000000	95.294	-262.6187
1625.000000	95.453	-264.2756
1650.000000	95.598	-266.0182
1675.000000	95.753	-267.8235
1700.000000	95.901	-269.5659
1725.000000	96.049	-271.3239
1750.000000	96.233	-273.0644
1775.000000	96.413	-274.7846
1800.000000	96.586	-276.6772
1825.000000	96.768	-278.6703
1850.000000	96.952	-280.7418
1875.000000	97.130	-282.8828
1900.000000	97.302	-285.0668
1925.000000	97.468	-287.2806
1950.000000	97.632	-289.5778
1975.000000	97.796	-291.9957
2000.000000	97.957	-294.5373
2030.000000	98.143	-297.7384
2060.000000	98.314	-301.0601
2090.000000	98.466	-304.4457
2120.000000	98.593	-307.8693
2140.000000	98.660	-310.1731
2180.000000	98.753	-314.7925
2200.000000	98.779	-317.0743
2240.000000	98.791	-321.5644
2270.000000	98.770	-324.8783
2300.000000	98.726	-328.1176
2330.000000	98.656	-331.2446
2360.000000	98.563	-334.2306
2400.000000	98.404	-337.9619
2430.000000	98.262	-340.5803
2470.000000	98.055	-343.8656
2500.000000	97.893	-346.1860
2540.000000	97.674	-349.1029
2580.000000	97.456	-351.8542
2620.000000	97.243	-354.4444
2650.000000	97.088	-356.2758
2690.000000	96.891	-358.5828
2720.000000	96.755	-360.2198
2760.000000	96.589	-362.2911
2800.000000	96.441	-364.2670
2850.000000	96.287	-366.6512
2900.000000	96.159	-368.9112
2950.000000	96.056	-371.0316
3000.000000	95.975	-373.0339
3040.000000	95.932	-374.5730
3070.000000	95.914	-375.7174
3110.000000	95.904	-377.2477
3150.000000	95.905	-378.8041
3200.000000	95.914	-380.7903
3250.000000	95.922	-382.8093
3300.000000	95.928	-384.8357
3350.000000	95.927	-386.8242
3400.000000	95.924	-388.7686
3450.000000	95.930	-390.6878
3500.000000	95.945	-392.6050
3550.000000	95.973	-394.5410
3600.000000	96.016	-396.4888
3650.000000	96.073	-398.4495
3700.000000	96.150	-400.4484
3750.000000	96.253	-402.5097
3820.000000	96.447	-405.5368
3870.000000	96.619	-407.8306
3950.000000	96.949	-411.8178
4000.000000	97.178	-414.5583
4060.000000	97.460	-418.0907
4120.000000	97.737	-421.8439
4180.000000	97.998	-425.7930
4250.000000	98.287	-430.6523
4310.000000	98.522	-435.0244
4370.000000	98.748	-439.5818
4440.000000	98.987	-445.1572
4500.000000	99.157	-450.1947
4550.000000	99.264	-454.6047
4620.000000	99.344	-461.1283
4680.000000	99.326	-467.0198
4750.000000	99.182	-474.0691
4820.000000	98.884	-480.9657
4870.000000	98.583	-485.5499
4940.000000	98.076	-491.1814
5000.000000	97.609	-495.1490
5080.000000	97.012	-499.3506
5150.000000	96.553	-502.3627
5220.000000	96.162	-505.0387
5300.000000	95.784	-507.8511
5380.000000	95.472	-510.4669
5450.000000	95.246	-512.6171
5520.000000	95.059	-514.6577
5600.000000	94.881	-516.8688
5700.000000	94.703	-519.5287
5800.000000	94.564	-522.1564
5900.000000	94.455	-524.7727
6000.000000	94.362	-527.4344
6080.000000	94.285	-529.6094
6150.000000	94.206	-531.5176
6220.000000	94.109	-533.3873
6300.000000	93.977	-535.4098
6400.000000	93.802	-537.7330
6500.000000	93.620	-540.0449
6600.000000	93.366	-542.2755
6700.000000	93.063	-543.8287
6800.000000	92.790	-544.8485
6900.000000	92.568	-545.3248
7000.000000	92.457	-545.7904
7100.000000	92.376	-546.7474
7200.000000	92.256	-547.7993
7300.000000	92.117	-548.6157
7400.000000	91.992	-549.1691
7500.000000	91.896	-549.4963
7620.000000	91.820	-549.6004
7750.000000	91.790	-549.3354
7880.000000	91.842	-548.6423
8000.000000	92.000	-547.6974
8120.000000	92.288	-546.7162
8250.000000	92.748	-546.0560
8380.000000	93.331	-546.2072
8500.000000	93.946	-547.3206
8620.000000	94.597	-549.5673
8750.000000	95.269	-553.5238
8850.000000	95.697	-557.6945
9000.000000	96.055	-565.4365
9120.000000	96.031	-572.1075
9250.000000	95.709	-578.6382
9380.000000	95.173	-583.6752
9500.000000	94.589	-586.8741
9620.000000	94.005	-588.9092
9750.000000	93.428	-590.1979
9880.000000	92.911	-590.8781
10000.000000	92.478	-591.0777
10150.000000	92.010	-590.8139
10300.000000	91.630	-590.0731
10440.000000	91.352	-589.0440
10600.000000	91.124	-587.6082
10750.000000	90.991	-586.1527
10900.000000	90.920	-584.6899
11060.000000	90.889	-583.1341
11200.000000	90.881	-581.7146
11380.000000	90.906	-579.6609
11500.000000	90.961	-578.1011
11720.000000	91.196	-574.9516
11800.000000	91.335	-573.7777
12060.000000	92.016	-570.3019
12200.000000	92.529	-568.9537
12410.000000	93.469	-568.0765
12500.000000	93.924	-568.2412
12650.000000	94.722	-569.4435
12800.000000	95.524	-572.0272
13150.000000	96.974	-584.0253
13200.000000	97.089	-586.3076
13400.000000	97.245	-595.9311
13600.000000	96.936	-604.9260
13800.000000	96.291	-611.9031
14000.000000	95.492	-616.4525
14300.000000	94.344	-619.3180
14500.000000	93.774	-619.2739
14750.000000	93.399	-617.9983
15000.000000	93.493	-616.3077
15250.000000	94.068	-615.4463
15500.000000	94.997	-616.5449
15750.000000	96.160	-620.1223
16000.000000	97.517	-626.8401
16250.000000	98.910	-638.1844
16500.000000	99.892	-655.2038
16750.000000	99.993	-675.7720
17000.000000	99.124	-694.7648
17250.000000	97.665	-708.7129
17500.000000	96.162	-717.8984
17750.000000	95.030	-724.3201
18000.000000	94.485	-730.4709
18250.000000	94.490	-739.5378
18500.000000	94.667	-754.6292
18750.000000	94.425	-776.1597
19000.000000	93.312	-800.5181
19250.000000	91.257	-822.5886
19500.000000	88.522	-839.6401
19750.000000	85.484	-851.9572
20000.000000	82.448	-861.4308
