* Measurement data measured by REW V5.20.13
* Source: EXCL: Mic in at front panel (Pink) (Realtek(R) Audio), MICROPHONE (Master Volume), L, volume: 0.250
* Format: 256k Log Swept Sine, 1 sweep at -12.0 dBFS with no timing reference
* Dated: Jun 24, 2023 1:34:44 AM
* REW Settings:
*  C-weighting compensation: Off
*  Target level: 75.0 dB
* Note: Joyodio VZ10 L
* Measurement: Joyodio VZ10 L
* Smoothing: 1/12 octave
* Frequency Step: 1/48 octave
* Start Frequency: 20.000 Hz
*
* Freq(Hz)	SPL(dB)	Phase(degrees)
20.000000	84.176	23.3555
20.299999	84.192	22.5940
20.600000	84.208	21.8574
20.900000	84.225	21.1364
21.200001	84.243	20.4200
21.400000	84.255	19.9414
21.799999	84.275	18.9832
22.000000	84.284	18.5059
22.400000	84.298	17.5646
22.700001	84.305	16.8768
23.000000	84.311	16.2079
23.299999	84.317	15.5556
23.600000	84.322	14.9163
24.000000	84.328	14.0780
24.299999	84.332	13.4570
24.700001	84.336	12.6394
25.000000	84.338	12.0356
25.400000	84.339	11.2454
25.799999	84.338	10.4734
26.200001	84.336	9.7189
26.500000	84.333	9.1638
26.900000	84.329	8.4373
27.200001	84.326	7.9022
27.600000	84.320	7.2009
28.000000	84.313	6.5125
28.500000	84.303	5.6681
29.000000	84.291	4.8416
29.500000	84.277	4.0350
30.000000	84.261	3.2506
30.400000	84.248	2.6383
30.700001	84.238	2.1863
31.100000	84.224	1.5903
31.500000	84.211	0.9998
32.000000	84.192	0.2689
32.500000	84.172	-0.4514
33.000000	84.151	-1.1583
33.500000	84.129	-1.8523
34.000000	84.106	-2.5339
34.500000	84.081	-3.2008
35.000000	84.056	-3.8510
35.500000	84.032	-4.4865
36.000000	84.007	-5.1150
36.500000	83.981	-5.7419
37.000000	83.952	-6.3647
37.500000	83.919	-6.9722
38.200001	83.868	-7.7708
38.700001	83.831	-8.2968
39.500000	83.776	-9.0978
40.000000	83.744	-9.6058
40.599998	83.701	-10.2278
41.200001	83.650	-10.8184
41.799999	83.597	-11.3333
42.500000	83.545	-11.8560
43.099998	83.513	-12.3005
43.700001	83.486	-12.7759
44.400002	83.458	-13.3666
45.000000	83.435	-13.9021
45.500000	83.414	-14.3705
46.200001	83.376	-15.0350
46.799999	83.337	-15.5731
47.500000	83.290	-16.1447
48.200001	83.245	-16.6824
48.700001	83.213	-17.0610
49.400002	83.167	-17.5878
50.000000	83.127	-18.0375
50.799999	83.069	-18.6360
51.500000	83.013	-19.1444
52.200001	82.955	-19.6171
53.000000	82.891	-20.1102
53.799999	82.835	-20.5840
54.500000	82.791	-21.0115
55.200001	82.748	-21.4542
56.000000	82.697	-21.9528
57.000000	82.633	-22.5341
58.000000	82.574	-23.0927
59.000000	82.514	-23.6623
60.000000	82.450	-24.2473
60.799999	82.392	-24.7035
61.500000	82.338	-25.0710
62.200001	82.286	-25.4049
63.000000	82.232	-25.7657
64.000000	82.170	-26.2274
65.000000	82.109	-26.7094
66.000000	82.040	-27.1655
67.000000	81.969	-27.5571
68.000000	81.901	-27.9092
69.000000	81.837	-28.2727
70.000000	81.774	-28.6748
71.000000	81.710	-29.1189
72.000000	81.645	-29.5852
73.000000	81.579	-30.0334
74.000000	81.515	-30.4237
75.000000	81.457	-30.7545
76.199997	81.393	-31.1105
77.500000	81.319	-31.4558
78.800003	81.242	-31.8046
80.000000	81.169	-32.2147
81.199997	81.091	-32.7384
82.500000	81.000	-33.3536
83.800003	80.913	-33.8503
85.000000	80.860	-34.1935
86.199997	80.823	-34.5250
87.500000	80.777	-34.8637
88.500000	80.730	-35.0822
90.000000	80.639	-35.3613
91.199997	80.553	-35.5669
92.500000	80.459	-35.7914
93.800003	80.374	-36.0529
95.000000	80.304	-36.3318
96.199997	80.239	-36.6229
97.500000	80.170	-36.9230
98.800003	80.100	-37.1912
100.000000	80.037	-37.4109
101.500000	79.964	-37.6615
103.000000	79.898	-37.9032
104.400002	79.836	-38.1154
106.000000	79.756	-38.3071
107.500000	79.676	-38.4597
109.000000	79.596	-38.6475
110.599998	79.519	-38.8807
112.000000	79.463	-39.0604
113.800003	79.394	-39.1154
115.000000	79.333	-38.9664
117.199997	79.171	-38.3352
118.000000	79.100	-38.0626
120.599998	78.901	-37.8467
122.000000	78.819	-38.4712
124.099998	78.713	-39.8295
125.000000	78.681	-40.3087
126.500000	78.650	-40.7894
128.000000	78.635	-40.8943
131.500000	78.576	-40.3034
132.000000	78.568	-40.1990
134.000000	78.553	-40.0312
136.000000	78.537	-40.3707
138.000000	78.485	-40.8981
140.000000	78.411	-41.2631
143.000000	78.332	-41.3995
145.000000	78.317	-41.4357
147.500000	78.293	-41.6769
150.000000	78.206	-42.0952
152.500000	78.066	-42.3945
155.000000	77.938	-42.4529
157.500000	77.855	-42.4420
160.000000	77.789	-42.5808
162.500000	77.709	-42.8985
165.000000	77.619	-43.2974
167.500000	77.534	-43.6052
170.000000	77.469	-43.6935
172.500000	77.419	-43.6403
175.000000	77.367	-43.6122
177.500000	77.308	-43.6729
180.000000	77.248	-43.7915
182.500000	77.191	-43.9294
185.000000	77.133	-44.0853
187.500000	77.074	-44.2538
190.000000	77.011	-44.3945
192.500000	76.949	-44.4766
195.000000	76.890	-44.5214
197.500000	76.835	-44.5605
200.000000	76.782	-44.5978
203.000000	76.720	-44.6378
206.000000	76.664	-44.6920
209.000000	76.611	-44.7819
212.000000	76.556	-44.8902
214.000000	76.516	-44.9525
218.000000	76.434	-45.0173
220.000000	76.395	-45.0230
224.000000	76.329	-45.0324
227.000000	76.287	-45.0645
230.000000	76.247	-45.1151
233.000000	76.207	-45.1777
236.000000	76.166	-45.2557
240.000000	76.109	-45.3881
243.000000	76.066	-45.4945
247.000000	76.005	-45.6141
250.000000	75.959	-45.6707
254.000000	75.901	-45.6874
258.000000	75.855	-45.6689
262.000000	75.817	-45.6930
265.000000	75.788	-45.7482
269.000000	75.744	-45.8254
272.000000	75.710	-45.8608
276.000000	75.669	-45.8759
280.000000	75.636	-45.8740
285.000000	75.607	-45.8895
290.000000	75.588	-45.9894
295.000000	75.565	-46.1891
300.000000	75.531	-46.4048
304.000000	75.500	-46.5477
307.000000	75.478	-46.6403
311.000000	75.449	-46.7581
315.000000	75.421	-46.8772
320.000000	75.384	-47.0129
325.000000	75.349	-47.1136
330.000000	75.322	-47.1952
335.000000	75.301	-47.2899
340.000000	75.283	-47.4198
345.000000	75.264	-47.5819
350.000000	75.243	-47.7543
355.000000	75.222	-47.9243
360.000000	75.200	-48.0907
365.000000	75.178	-48.2538
370.000000	75.157	-48.4106
375.000000	75.135	-48.5587
382.000000	75.108	-48.7522
387.000000	75.091	-48.8827
395.000000	75.065	-49.0839
400.000000	75.052	-49.2077
406.000000	75.037	-49.3632
412.000000	75.024	-49.5282
418.000000	75.010	-49.6843
425.000000	74.996	-49.8347
431.000000	74.990	-49.9471
437.000000	74.990	-50.0684
444.000000	74.996	-50.2357
450.000000	75.006	-50.4166
455.000000	75.014	-50.6115
462.000000	75.019	-50.9376
468.000000	75.014	-51.2118
475.000000	75.005	-51.4850
482.000000	74.998	-51.7295
487.000000	74.994	-51.9011
494.000000	74.986	-52.1201
500.000000	74.981	-52.2753
508.000000	74.981	-52.4720
515.000000	74.985	-52.6658
522.000000	74.988	-52.8679
530.000000	74.990	-53.0767
538.000000	74.996	-53.2625
545.000000	75.005	-53.4238
552.000000	75.016	-53.5870
560.000000	75.031	-53.7855
570.000000	75.051	-54.0621
580.000000	75.070	-54.3412
590.000000	75.088	-54.6020
600.000000	75.108	-54.8346
608.000000	75.127	-55.0122
615.000000	75.144	-55.1715
622.000000	75.161	-55.3249
630.000000	75.182	-55.4724
640.000000	75.215	-55.6207
650.000000	75.258	-55.7589
660.000000	75.313	-55.9181
670.000000	75.374	-56.1570
680.000000	75.432	-56.4777
690.000000	75.480	-56.8171
700.000000	75.523	-57.1253
710.000000	75.566	-57.3922
720.000000	75.612	-57.6390
730.000000	75.660	-57.8771
740.000000	75.708	-58.1053
750.000000	75.758	-58.3223
762.000000	75.821	-58.5657
775.000000	75.893	-58.8109
788.000000	75.971	-59.0393
800.000000	76.048	-59.2235
812.000000	76.135	-59.3857
825.000000	76.245	-59.5995
838.000000	76.361	-59.9138
850.000000	76.462	-60.2629
862.000000	76.558	-60.6071
875.000000	76.663	-60.9396
885.000000	76.748	-61.1673
900.000000	76.887	-61.4938
912.000000	77.012	-61.7591
925.000000	77.166	-62.0916
938.000000	77.343	-62.5623
950.000000	77.519	-63.2336
962.000000	77.688	-64.2339
975.000000	77.824	-65.7059
988.000000	77.869	-67.3518
1000.000000	77.820	-68.6021
1015.000000	77.704	-69.3226
1030.000000	77.635	-69.2093
1044.000000	77.658	-68.8367
1060.000000	77.760	-68.5493
1075.000000	77.888	-68.5161
1090.000000	78.024	-68.6486
1106.000000	78.172	-68.9022
1120.000000	78.300	-69.1832
1138.000000	78.461	-69.5881
1150.000000	78.568	-69.8698
1172.000000	78.767	-70.3861
1180.000000	78.842	-70.5722
1206.000000	79.102	-71.2427
1220.000000	79.247	-71.7010
1241.000000	79.456	-72.5023
1250.000000	79.541	-72.8653
1265.000000	79.679	-73.4769
1280.000000	79.813	-74.0898
1315.000000	80.122	-75.5321
1320.000000	80.165	-75.7449
1340.000000	80.337	-76.6217
1360.000000	80.501	-77.5228
1380.000000	80.659	-78.4144
1400.000000	80.815	-79.2737
1430.000000	81.060	-80.5986
1450.000000	81.222	-81.5884
1475.000000	81.407	-82.9101
1500.000000	81.571	-84.2449
1525.000000	81.717	-85.5309
1550.000000	81.853	-86.7294
1575.000000	81.990	-87.8471
1600.000000	82.131	-88.9670
1625.000000	82.265	-90.1295
1650.000000	82.386	-91.2761
1675.000000	82.498	-92.3477
1700.000000	82.608	-93.3354
1725.000000	82.721	-94.2653
1750.000000	82.835	-95.1473
1775.000000	82.953	-95.9717
1800.000000	83.083	-96.7665
1825.000000	83.224	-97.6089
1850.000000	83.363	-98.5298
1875.000000	83.495	-99.4928
1900.000000	83.616	-100.4430
1925.000000	83.733	-101.3354
1950.000000	83.853	-102.1592
1975.000000	83.983	-102.9579
2000.000000	84.120	-103.7883
2030.000000	84.285	-104.8411
2060.000000	84.448	-105.9244
2090.000000	84.608	-107.0178
2120.000000	84.764	-108.1098
2140.000000	84.866	-108.8193
2180.000000	85.076	-110.1615
2200.000000	85.190	-110.8209
2240.000000	85.432	-112.2146
2270.000000	85.617	-113.3434
2300.000000	85.802	-114.5160
2330.000000	85.991	-115.7064
2360.000000	86.189	-116.9387
2400.000000	86.464	-118.7410
2430.000000	86.672	-120.2457
2470.000000	86.941	-122.4636
2500.000000	87.131	-124.2849
2540.000000	87.359	-126.8766
2580.000000	87.560	-129.5938
2620.000000	87.734	-132.4398
2650.000000	87.842	-134.6541
2690.000000	87.955	-137.6613
2720.000000	88.019	-139.9264
2760.000000	88.084	-142.9794
2800.000000	88.118	-146.1201
2850.000000	88.102	-150.1489
2900.000000	88.004	-154.1468
2950.000000	87.828	-157.8884
3000.000000	87.597	-161.2543
3040.000000	87.386	-163.6835
3070.000000	87.214	-165.3454
3110.000000	86.973	-167.3275
3150.000000	86.727	-169.0538
3200.000000	86.425	-170.9175
3250.000000	86.131	-172.5186
3300.000000	85.840	-173.8802
3350.000000	85.553	-174.9816
3400.000000	85.278	-175.8450
3450.000000	85.014	-176.5100
3500.000000	84.761	-176.9601
3550.000000	84.527	-177.1986
3600.000000	84.319	-177.2899
3650.000000	84.133	-177.2986
3700.000000	83.964	-177.2354
3750.000000	83.808	-177.0716
3820.000000	83.617	-176.6775
3870.000000	83.501	-176.2796
3950.000000	83.363	-175.4171
4000.000000	83.317	-174.8023
4060.000000	83.299	-174.0884
4120.000000	83.315	-173.4297
4180.000000	83.358	-172.8244
4250.000000	83.441	-172.1901
4310.000000	83.540	-171.6759
4370.000000	83.675	-171.2016
4440.000000	83.882	-170.8086
4500.000000	84.097	-170.6920
4550.000000	84.298	-170.7819
4620.000000	84.606	-171.2504
4680.000000	84.886	-172.0045
4750.000000	85.225	-173.3464
4820.000000	85.562	-175.3068
4870.000000	85.784	-177.1486
4940.000000	86.037	179.6534
5000.000000	86.176	176.4083
5080.000000	86.215	171.6257
5150.000000	86.103	167.3572
5220.000000	85.861	163.3071
5300.000000	85.445	159.2188
5380.000000	84.910	155.9260
5450.000000	84.367	153.8123
5520.000000	83.778	152.4870
5600.000000	83.083	151.9449
5700.000000	82.238	152.5861
5800.000000	81.465	154.4617
5900.000000	80.794	157.3828
6000.000000	80.260	161.2257
6080.000000	79.961	164.8115
6150.000000	79.810	168.1724
6220.000000	79.765	171.6021
6300.000000	79.845	175.4533
6400.000000	80.126	179.9314
6500.000000	80.583	-176.2639
6600.000000	81.160	-173.4200
6700.000000	81.791	-171.6715
6800.000000	82.421	-170.9460
6900.000000	83.022	-171.0590
7000.000000	83.581	-171.8083
7100.000000	84.101	-172.9998
7200.000000	84.599	-174.4725
7300.000000	85.102	-176.1763
7400.000000	85.632	-178.2072
7500.000000	86.196	179.2424
7620.000000	86.906	175.1564
7750.000000	87.656	168.9030
7880.000000	88.256	160.1862
8000.000000	88.524	150.0216
8120.000000	88.410	138.7018
8250.000000	87.811	126.7311
8380.000000	86.762	116.6796
8500.000000	85.498	109.8967
8620.000000	84.075	105.5076
8750.000000	82.478	102.9822
8850.000000	81.266	102.2868
9000.000000	79.533	102.7810
9120.000000	78.252	104.0905
9250.000000	76.968	106.1075
9380.000000	75.770	108.6478
9500.000000	74.725	111.4369
9620.000000	73.725	114.6645
9750.000000	72.686	118.7165
9880.000000	71.698	123.3953
10000.000000	70.844	128.2738
10150.000000	69.876	135.1109
10300.000000	69.058	142.6599
10440.000000	68.468	150.1246
10600.000000	68.027	158.8311
10750.000000	67.851	166.8084
10900.000000	67.889	174.2224
11060.000000	68.114	-178.8797
11200.000000	68.401	-173.9845
11380.000000	68.763	-169.4153
11500.000000	68.930	-167.2769
11720.000000	68.973	-164.0980
11800.000000	68.904	-162.7768
12060.000000	68.549	-156.3607
12200.000000	68.439	-151.4268
12410.000000	68.629	-142.8956
12500.000000	68.871	-139.1854
12650.000000	69.477	-133.4102
12800.000000	70.283	-128.5858
13150.000000	72.465	-123.1473
13200.000000	72.763	-123.1480
13400.000000	73.810	-125.0260
13600.000000	74.550	-129.2634
13800.000000	74.952	-134.6727
14000.000000	75.054	-140.1279
14300.000000	74.812	-147.1074
14500.000000	74.474	-150.7672
14750.000000	73.904	-154.0696
15000.000000	73.248	-155.5233
15250.000000	72.722	-155.2537
15500.000000	72.552	-154.7138
15750.000000	72.719	-156.1288
16000.000000	72.915	-161.0486
16250.000000	72.780	-169.0457
16500.000000	72.127	-177.9105
16750.000000	70.960	174.7740
17000.000000	69.391	170.5022
17250.000000	67.580	169.7239
17500.000000	65.739	171.8956
17750.000000	64.114	175.5570
18000.000000	62.868	178.8141
18250.000000	61.933	-179.7667
18500.000000	61.035	179.7917
18750.000000	59.893	179.1926
19000.000000	58.389	-179.1607
19250.000000	56.627	-174.1271
19500.000000	54.883	-166.8242
19750.000000	53.381	-159.1609
20000.000000	52.102	-151.8615
