* Measurement data measured by REW V5.20.13
* Source: Input device not selected, no input selected, L, volume: no control
* Format: 256k Log Swept Sine, 1 sweep at -13.0 dBFS with no timing reference
* Dated: Sep 27, 2023 1:08:26 AM
* REW Settings:
*  C-weighting compensation: Off
*  Target level: 75.0 dB
* Note: ZAT 1110 R
* Measurement: ZAT 1110
* Smoothing: 1/12 octave
* Frequency Step: 1/48 octave
* Start Frequency: 20.000 Hz
*
* Freq(Hz)	SPL(dB)	Phase(degrees)
20.000000	108.784	12.3263
20.299999	108.805	11.9730
20.600000	108.824	11.6203
20.900000	108.839	11.2686
21.200001	108.850	10.9207
21.400000	108.855	10.6924
21.799999	108.863	10.2424
22.000000	108.867	10.0178
22.400000	108.873	9.5581
22.700001	108.878	9.1943
23.000000	108.881	8.8086
23.299999	108.881	8.4052
23.600000	108.879	7.9933
24.000000	108.871	7.4489
24.299999	108.865	7.0546
24.700001	108.858	6.5515
25.000000	108.855	6.1888
25.400000	108.855	5.7213
25.799999	108.863	5.2703
26.200001	108.879	4.8267
26.500000	108.897	4.4816
26.900000	108.928	3.9731
27.200001	108.952	3.5377
27.600000	108.974	2.8892
28.000000	108.977	2.2228
28.500000	108.952	1.5201
29.000000	108.917	1.0995
29.500000	108.902	0.9260
30.000000	108.923	0.8054
30.400000	108.956	0.6268
30.700001	108.981	0.4274
31.100000	109.008	0.1039
31.500000	109.025	-0.2370
32.000000	109.035	-0.6324
32.500000	109.041	-0.9875
33.000000	109.048	-1.3282
33.500000	109.055	-1.6762
34.000000	109.061	-2.0507
34.500000	109.065	-2.4712
35.000000	109.062	-2.9357
35.500000	109.047	-3.4036
36.000000	109.027	-3.8275
36.500000	109.008	-4.2010
37.000000	108.997	-4.5643
37.500000	108.991	-4.9582
38.200001	108.982	-5.5565
38.700001	108.973	-5.9761
39.500000	108.962	-6.5963
40.000000	108.959	-6.9713
40.599998	108.955	-7.4205
41.200001	108.947	-7.8538
41.799999	108.937	-8.2531
42.500000	108.922	-8.6770
43.099998	108.908	-9.0179
43.700001	108.892	-9.3477
44.400002	108.873	-9.7252
45.000000	108.858	-10.0494
45.500000	108.848	-10.3287
46.200001	108.840	-10.7591
46.799999	108.837	-11.1924
47.500000	108.830	-11.7665
48.200001	108.815	-12.3501
48.700001	108.802	-12.7459
49.400002	108.781	-13.2766
50.000000	108.754	-13.6957
50.799999	108.703	-14.0907
51.500000	108.662	-14.2246
52.200001	108.640	-14.2571
53.000000	108.634	-14.3358
53.799999	108.631	-14.5285
54.500000	108.622	-14.7837
55.200001	108.602	-15.0811
56.000000	108.573	-15.4032
57.000000	108.547	-15.7692
58.000000	108.540	-16.2188
59.000000	108.532	-16.7463
60.000000	108.521	-17.1809
60.799999	108.525	-17.4385
61.500000	108.542	-17.6661
62.200001	108.565	-17.9451
63.000000	108.588	-18.3292
64.000000	108.607	-18.8484
65.000000	108.619	-19.3518
66.000000	108.631	-19.8553
67.000000	108.640	-20.4055
68.000000	108.629	-20.9608
69.000000	108.595	-21.3893
70.000000	108.552	-21.5822
71.000000	108.527	-21.5723
72.000000	108.534	-21.5919
73.000000	108.556	-21.8309
74.000000	108.577	-22.3235
75.000000	108.588	-23.1192
76.199997	108.555	-24.3945
77.500000	108.458	-25.7125
78.800003	108.356	-26.6847
80.000000	108.291	-27.3958
81.199997	108.245	-28.0463
82.500000	108.200	-28.6893
83.800003	108.156	-29.3097
85.000000	108.108	-29.9199
86.199997	108.048	-30.5315
87.500000	107.973	-31.1147
88.500000	107.914	-31.4722
90.000000	107.833	-31.8582
91.199997	107.774	-32.0933
92.500000	107.714	-32.3481
93.800003	107.663	-32.6489
95.000000	107.638	-33.0255
96.199997	107.632	-33.5254
97.500000	107.643	-34.1203
98.800003	107.666	-34.7115
100.000000	107.677	-35.2841
101.500000	107.632	-35.9287
103.000000	107.533	-36.2616
104.400002	107.449	-36.4038
106.000000	107.385	-36.6702
107.500000	107.334	-37.0637
109.000000	107.268	-37.5083
110.599998	107.177	-38.0042
112.000000	107.099	-38.4987
113.800003	107.068	-39.1852
115.000000	107.132	-39.5856
117.199997	107.439	-40.0862
118.000000	107.573	-40.2755
120.599998	107.691	-41.1643
122.000000	107.451	-41.1960
124.099998	106.927	-40.4335
125.000000	106.726	-40.0863
126.500000	106.504	-39.8190
128.000000	106.432	-40.2022
131.500000	106.428	-42.8407
132.000000	106.417	-43.1739
134.000000	106.357	-44.1180
136.000000	106.291	-44.6549
138.000000	106.224	-45.0015
140.000000	106.171	-45.3678
143.000000	106.080	-46.2184
145.000000	105.984	-46.6371
147.500000	105.872	-46.8292
150.000000	105.804	-47.0345
152.500000	105.793	-47.3734
155.000000	105.812	-47.6642
157.500000	105.810	-47.7806
160.000000	105.770	-47.8975
162.500000	105.701	-48.2466
165.000000	105.605	-48.6899
167.500000	105.520	-49.1699
170.000000	105.484	-49.7596
172.500000	105.512	-50.1419
175.000000	105.580	-50.0670
177.500000	105.600	-50.0441
180.000000	105.489	-50.5597
182.500000	105.298	-51.3445
185.000000	105.132	-52.0157
187.500000	105.015	-52.4736
190.000000	104.923	-52.8438
192.500000	104.841	-53.2495
195.000000	104.764	-53.7322
197.500000	104.683	-54.3379
200.000000	104.600	-55.0343
203.000000	104.522	-55.6504
206.000000	104.481	-55.7751
209.000000	104.451	-55.7251
212.000000	104.404	-55.8169
214.000000	104.363	-55.9572
218.000000	104.272	-56.2849
220.000000	104.227	-56.4529
224.000000	104.145	-56.8143
227.000000	104.090	-57.1016
230.000000	104.035	-57.3900
233.000000	103.981	-57.6759
236.000000	103.928	-57.9603
240.000000	103.857	-58.3397
243.000000	103.802	-58.6193
247.000000	103.724	-58.9630
250.000000	103.665	-59.1860
254.000000	103.591	-59.4338
258.000000	103.529	-59.6601
262.000000	103.476	-59.9245
265.000000	103.436	-60.1487
269.000000	103.379	-60.4419
272.000000	103.335	-60.6390
276.000000	103.280	-60.8730
280.000000	103.231	-61.0898
285.000000	103.179	-61.3675
290.000000	103.136	-61.7063
295.000000	103.090	-62.1200
300.000000	103.032	-62.5314
304.000000	102.981	-62.8267
307.000000	102.944	-63.0337
311.000000	102.897	-63.2997
315.000000	102.851	-63.5560
320.000000	102.793	-63.8463
325.000000	102.737	-64.0889
330.000000	102.688	-64.3060
335.000000	102.645	-64.5267
340.000000	102.604	-64.7603
345.000000	102.564	-64.9981
350.000000	102.524	-65.2253
355.000000	102.485	-65.4371
360.000000	102.449	-65.6393
365.000000	102.416	-65.8344
370.000000	102.384	-66.0190
375.000000	102.354	-66.1935
382.000000	102.315	-66.4243
387.000000	102.290	-66.5824
395.000000	102.253	-66.8243
400.000000	102.235	-66.9706
406.000000	102.216	-67.1532
412.000000	102.197	-67.3441
418.000000	102.178	-67.5206
425.000000	102.160	-67.6865
431.000000	102.151	-67.8048
437.000000	102.150	-67.9252
444.000000	102.156	-68.0840
450.000000	102.166	-68.2540
455.000000	102.176	-68.4384
462.000000	102.183	-68.7476
468.000000	102.181	-69.0040
475.000000	102.176	-69.2507
482.000000	102.173	-69.4611
487.000000	102.173	-69.6039
494.000000	102.171	-69.7787
500.000000	102.173	-69.8940
508.000000	102.184	-70.0372
515.000000	102.197	-70.1837
522.000000	102.211	-70.3361
530.000000	102.227	-70.4869
538.000000	102.247	-70.6149
545.000000	102.270	-70.7222
552.000000	102.297	-70.8273
560.000000	102.331	-70.9550
570.000000	102.377	-71.1385
580.000000	102.422	-71.3243
590.000000	102.468	-71.4929
600.000000	102.518	-71.6331
608.000000	102.564	-71.7379
615.000000	102.605	-71.8341
622.000000	102.646	-71.9240
630.000000	102.696	-71.9997
640.000000	102.766	-72.0650
650.000000	102.848	-72.1290
660.000000	102.942	-72.2181
670.000000	103.044	-72.3903
680.000000	103.144	-72.6487
690.000000	103.236	-72.9316
700.000000	103.324	-73.1936
710.000000	103.412	-73.4261
720.000000	103.505	-73.6499
730.000000	103.599	-73.8772
740.000000	103.696	-74.1066
750.000000	103.794	-74.3368
762.000000	103.916	-74.6179
775.000000	104.050	-74.9376
788.000000	104.186	-75.2668
800.000000	104.313	-75.5458
812.000000	104.452	-75.7952
825.000000	104.620	-76.1150
838.000000	104.794	-76.5708
850.000000	104.948	-77.0865
862.000000	105.093	-77.6288
875.000000	105.244	-78.2086
885.000000	105.359	-78.6482
900.000000	105.530	-79.3182
912.000000	105.668	-79.8615
925.000000	105.819	-80.4604
938.000000	105.973	-81.0923
950.000000	106.114	-81.7184
962.000000	106.251	-82.3790
975.000000	106.396	-83.1174
988.000000	106.535	-83.8690
1000.000000	106.661	-84.5657
1015.000000	106.817	-85.4226
1030.000000	106.978	-86.2830
1044.000000	107.133	-87.1487
1060.000000	107.307	-88.2643
1075.000000	107.455	-89.3968
1090.000000	107.588	-90.5543
1106.000000	107.716	-91.7910
1120.000000	107.818	-92.8680
1138.000000	107.937	-94.2334
1150.000000	108.009	-95.1256
1172.000000	108.130	-96.7095
1180.000000	108.172	-97.2670
1206.000000	108.311	-99.0759
1220.000000	108.381	-100.0995
1241.000000	108.466	-101.6799
1250.000000	108.495	-102.3494
1265.000000	108.532	-103.4312
1280.000000	108.561	-104.4609
1315.000000	108.603	-106.6580
1320.000000	108.607	-106.9531
1340.000000	108.619	-108.0938
1360.000000	108.620	-109.1537
1380.000000	108.615	-110.0994
1400.000000	108.609	-110.9114
1430.000000	108.619	-111.9885
1450.000000	108.632	-112.7092
1475.000000	108.642	-113.5961
1500.000000	108.644	-114.4059
1525.000000	108.642	-115.0981
1550.000000	108.642	-115.6499
1575.000000	108.657	-116.0842
1600.000000	108.691	-116.5083
1625.000000	108.732	-116.9894
1650.000000	108.770	-117.4929
1675.000000	108.803	-117.9724
1700.000000	108.835	-118.4113
1725.000000	108.864	-118.8105
1750.000000	108.890	-119.1459
1775.000000	108.917	-119.3781
1800.000000	108.956	-119.5176
1825.000000	109.012	-119.6400
1850.000000	109.076	-119.7905
1875.000000	109.143	-119.9578
1900.000000	109.211	-120.1110
1925.000000	109.282	-120.2206
1950.000000	109.363	-120.2828
1975.000000	109.459	-120.3422
2000.000000	109.566	-120.4539
2030.000000	109.700	-120.6688
2060.000000	109.834	-120.9378
2090.000000	109.967	-121.2363
2120.000000	110.098	-121.5499
2140.000000	110.185	-121.7490
2180.000000	110.366	-122.0901
2200.000000	110.465	-122.2566
2240.000000	110.673	-122.6713
2270.000000	110.826	-123.0690
2300.000000	110.971	-123.5061
2330.000000	111.107	-123.9502
2360.000000	111.238	-124.4238
2400.000000	111.400	-125.1918
2430.000000	111.508	-125.8956
2470.000000	111.631	-126.9834
2500.000000	111.709	-127.8842
2540.000000	111.797	-129.1400
2580.000000	111.877	-130.4089
2620.000000	111.952	-131.7144
2650.000000	112.004	-132.7486
2690.000000	112.067	-134.2120
2720.000000	112.113	-135.3647
2760.000000	112.173	-136.9991
2800.000000	112.230	-138.8131
2850.000000	112.290	-141.4104
2900.000000	112.335	-144.3698
2950.000000	112.366	-147.5855
3000.000000	112.387	-150.9286
3040.000000	112.396	-153.6437
3070.000000	112.397	-155.6811
3110.000000	112.390	-158.3571
3150.000000	112.381	-160.9511
3200.000000	112.363	-164.0786
3250.000000	112.337	-167.1136
3300.000000	112.298	-170.0508
3350.000000	112.247	-172.8341
3400.000000	112.183	-175.4197
3450.000000	112.103	-177.7707
3500.000000	112.002	-179.8113
3550.000000	111.882	178.5234
3600.000000	111.742	177.2208
3650.000000	111.578	176.2280
3700.000000	111.384	175.5446
3750.000000	111.160	175.2069
3820.000000	110.816	175.2818
3870.000000	110.560	175.7053
3950.000000	110.175	176.9891
4000.000000	109.974	178.0521
4060.000000	109.785	179.4271
4120.000000	109.650	-179.1742
4180.000000	109.566	-177.7940
4250.000000	109.524	-176.2510
4310.000000	109.533	-174.9736
4370.000000	109.589	-173.7598
4440.000000	109.714	-172.5374
4500.000000	109.862	-171.7350
4550.000000	110.007	-171.2619
4620.000000	110.230	-170.9246
4680.000000	110.429	-170.9283
4750.000000	110.665	-171.2621
4820.000000	110.895	-172.0137
4870.000000	111.046	-172.8496
4940.000000	111.222	-174.4585
5000.000000	111.334	-176.2307
5080.000000	111.416	-179.0291
5150.000000	111.424	178.3161
5220.000000	111.377	175.6435
5300.000000	111.255	172.7285
5380.000000	111.054	170.1268
5450.000000	110.807	168.2327
5520.000000	110.495	166.8026
5600.000000	110.083	165.8015
5700.000000	109.540	165.4572
5800.000000	109.020	165.9747
5900.000000	108.553	167.2054
6000.000000	108.168	169.0385
6080.000000	107.936	170.8029
6150.000000	107.794	172.4443
6220.000000	107.707	174.0837
6300.000000	107.663	175.8873
6400.000000	107.678	177.9901
6500.000000	107.760	179.8811
6600.000000	107.896	-178.4871
6700.000000	108.073	-177.1268
6800.000000	108.286	-176.0117
6900.000000	108.535	-175.1472
7000.000000	108.814	-174.5682
7100.000000	109.112	-174.2392
7200.000000	109.440	-174.0483
7300.000000	109.820	-173.9941
7400.000000	110.260	-174.2938
7500.000000	110.722	-175.2341
7620.000000	111.238	-177.5231
7750.000000	111.695	178.1260
7880.000000	112.020	171.2114
8000.000000	112.187	162.2104
8120.000000	112.202	151.0663
8250.000000	112.012	138.0600
8380.000000	111.539	126.2008
8500.000000	110.784	117.7713
8620.000000	109.714	112.2012
8750.000000	108.291	108.9418
8850.000000	107.107	107.9362
9000.000000	105.338	108.1408
9120.000000	104.005	109.2811
9250.000000	102.662	111.1912
9380.000000	101.416	113.6755
9500.000000	100.345	116.3708
9620.000000	99.336	119.4028
9750.000000	98.298	123.1092
9880.000000	97.313	127.3163
10000.000000	96.456	131.6660
10150.000000	95.472	137.7336
10300.000000	94.615	144.4147
10440.000000	93.962	151.0240
10600.000000	93.409	158.7919
10750.000000	93.096	166.0391
10900.000000	92.986	172.9655
11060.000000	93.082	179.6566
11200.000000	93.317	-175.4265
11380.000000	93.738	-170.8999
11500.000000	94.019	-169.1888
11720.000000	94.337	-168.6021
11800.000000	94.348	-168.9515
12060.000000	93.937	-170.1487
12200.000000	93.472	-169.8375
12410.000000	92.599	-167.1517
12500.000000	92.211	-165.1433
12650.000000	91.623	-160.8054
12800.000000	91.184	-155.5693
13150.000000	91.004	-142.5745
13200.000000	91.073	-140.8735
13400.000000	91.530	-134.9785
13600.000000	92.176	-130.9424
13800.000000	92.879	-129.1787
14000.000000	93.488	-129.9349
14300.000000	93.890	-134.8177
14500.000000	93.741	-138.7323
14750.000000	93.184	-142.4407
15000.000000	92.374	-143.9109
15250.000000	91.525	-143.0245
15500.000000	90.879	-140.6414
15750.000000	90.588	-138.4990
16000.000000	90.545	-138.3960
16250.000000	90.444	-140.8711
16500.000000	90.031	-144.5780
16750.000000	89.288	-147.3515
17000.000000	88.469	-148.3509
17250.000000	87.928	-149.4213
17500.000000	87.631	-153.6552
17750.000000	87.070	-161.2810
18000.000000	85.894	-168.7891
18250.000000	84.128	-172.8009
18500.000000	81.970	-172.3615
18750.000000	79.728	-169.1030
19000.000000	77.663	-165.4090
19250.000000	75.758	-161.6703
19500.000000	73.841	-156.6140
19750.000000	71.837	-149.2616
20000.000000	69.796	-139.5598
