* Measurement data measured by REW V5.30 beta 1
* Source: EXCL: Microphone (Realtek(R) Audio), MICROPHONE (Master Volume), L, volume: 1.000
* Format: 256k Log Swept Sine, 1 sweep at -14.0 dBFS with no timing reference
* Dated: Nov 26, 2023 2:29:22 PM
* REW Settings:
*  C-weighting compensation: Off
*  Target level: 75.0 dB
* Note: Moondrop Variations
* Measurement: R Moondrop Variations
* Smoothing: 1/12 octave
* Frequency Step: 1/48 octave
* Start Frequency: 20.000 Hz
*
* Freq(Hz)	SPL(dB)	Phase(degrees)
20.000000	105.647	18.3989
20.299999	105.674	17.6017
20.600000	105.675	16.7835
20.900000	105.650	16.0470
21.200001	105.613	15.4645
21.400000	105.592	15.1642
21.799999	105.577	14.6691
22.000000	105.587	14.4005
22.400000	105.626	13.6649
22.700001	105.649	12.9064
23.000000	105.649	12.0363
23.299999	105.621	11.1706
23.600000	105.572	10.4203
24.000000	105.509	9.6776
24.299999	105.487	9.2546
24.700001	105.503	8.6599
25.000000	105.535	8.0647
25.400000	105.571	7.0339
25.799999	105.568	5.8831
26.200001	105.523	4.8645
26.500000	105.478	4.2966
26.900000	105.434	3.8022
27.200001	105.428	3.5409
27.600000	105.453	3.1617
28.000000	105.497	2.6158
28.500000	105.534	1.7015
29.000000	105.528	0.7266
29.500000	105.490	-0.1118
30.000000	105.445	-0.7736
30.400000	105.413	-1.2241
30.700001	105.393	-1.5447
31.100000	105.371	-1.9715
31.500000	105.353	-2.4149
32.000000	105.338	-3.0217
32.500000	105.324	-3.7130
33.000000	105.304	-4.4795
33.500000	105.275	-5.2763
34.000000	105.239	-6.0668
34.500000	105.200	-6.8436
35.000000	105.152	-7.5934
35.500000	105.095	-8.2613
36.000000	105.034	-8.7853
36.500000	104.986	-9.1716
37.000000	104.958	-9.5123
37.500000	104.943	-9.9065
38.200001	104.912	-10.5576
38.700001	104.877	-11.0001
39.500000	104.823	-11.6329
40.000000	104.795	-12.0959
40.599998	104.744	-12.7760
41.200001	104.659	-13.4390
41.799999	104.558	-13.8915
42.500000	104.475	-14.2001
43.099998	104.449	-14.5472
43.700001	104.439	-15.1263
44.400002	104.411	-15.9850
45.000000	104.375	-16.7067
45.500000	104.347	-17.2639
46.200001	104.313	-18.0343
46.799999	104.278	-18.6831
47.500000	104.223	-19.2899
48.200001	104.181	-19.6861
48.700001	104.168	-19.9586
49.400002	104.152	-20.4946
50.000000	104.109	-21.0441
50.799999	104.003	-21.5845
51.500000	103.910	-21.7699
52.200001	103.848	-21.8662
53.000000	103.808	-22.1598
53.799999	103.763	-22.7449
54.500000	103.692	-23.3323
55.200001	103.605	-23.7846
56.000000	103.520	-24.1301
57.000000	103.445	-24.5617
58.000000	103.379	-25.0616
59.000000	103.311	-25.6060
60.000000	103.228	-26.1658
60.799999	103.150	-26.5225
61.500000	103.085	-26.7452
62.200001	103.026	-26.9008
63.000000	102.972	-26.9863
64.000000	102.950	-26.9112
65.000000	103.030	-27.0469
66.000000	103.128	-28.2478
67.000000	103.048	-30.1480
68.000000	102.784	-31.3674
69.000000	102.508	-31.4238
70.000000	102.333	-30.9444
71.000000	102.243	-30.6534
72.000000	102.162	-30.7348
73.000000	102.056	-31.0164
74.000000	101.930	-31.4237
75.000000	101.795	-31.9639
76.199997	101.652	-32.6830
77.500000	101.608	-33.5044
78.800003	101.716	-34.7338
80.000000	101.844	-36.2402
81.199997	101.886	-37.2622
82.500000	101.894	-37.1353
83.800003	101.864	-36.8075
85.000000	101.687	-36.3797
86.199997	101.446	-35.5616
87.500000	101.215	-34.9518
88.500000	101.061	-34.9513
90.000000	100.873	-35.3144
91.199997	100.793	-35.6560
92.500000	100.756	-36.0215
93.800003	100.721	-36.2907
95.000000	100.665	-36.4591
96.199997	100.579	-36.5757
97.500000	100.475	-36.6786
98.800003	100.386	-36.8320
100.000000	100.313	-37.1254
101.500000	100.172	-37.4917
103.000000	99.986	-37.2793
104.400002	99.839	-36.8162
106.000000	99.718	-36.7041
107.500000	99.637	-37.1701
109.000000	99.585	-37.9277
110.599998	99.534	-38.5189
112.000000	99.470	-38.4598
113.800003	99.342	-37.8716
115.000000	99.198	-37.7040
117.199997	98.765	-38.6626
118.000000	98.568	-39.2914
120.599998	98.166	-40.4095
122.000000	98.252	-40.6591
124.099998	98.462	-40.9113
125.000000	98.495	-40.6355
126.500000	98.477	-39.6468
128.000000	98.405	-38.5544
131.500000	98.214	-37.4917
132.000000	98.198	-37.4553
134.000000	98.152	-37.2148
136.000000	98.092	-36.6872
138.000000	97.969	-36.1924
140.000000	97.800	-36.0555
143.000000	97.581	-36.4250
145.000000	97.480	-36.5928
147.500000	97.344	-36.3975
150.000000	97.182	-35.8645
152.500000	97.034	-35.4027
155.000000	96.923	-35.1507
157.500000	96.831	-34.9658
160.000000	96.745	-34.7096
162.500000	96.658	-34.4075
165.000000	96.562	-34.0975
167.500000	96.461	-33.8154
170.000000	96.362	-33.5624
172.500000	96.273	-33.2611
175.000000	96.201	-32.9420
177.500000	96.160	-32.7532
180.000000	96.168	-32.7503
182.500000	96.184	-32.8001
185.000000	96.111	-32.5703
187.500000	95.938	-31.9049
190.000000	95.752	-31.3435
192.500000	95.607	-31.1274
195.000000	95.498	-30.8344
197.500000	95.407	-30.1013
200.000000	95.332	-29.1903
203.000000	95.257	-28.3726
206.000000	95.192	-27.8607
209.000000	95.123	-27.4856
212.000000	95.043	-27.1468
214.000000	94.987	-26.9100
218.000000	94.878	-26.2675
220.000000	94.833	-25.8453
224.000000	94.759	-24.9748
227.000000	94.708	-24.3788
230.000000	94.658	-23.8282
233.000000	94.609	-23.3007
236.000000	94.559	-22.7802
240.000000	94.493	-22.1008
243.000000	94.443	-21.6160
247.000000	94.377	-20.9827
250.000000	94.328	-20.4795
254.000000	94.268	-19.7431
258.000000	94.221	-18.9775
262.000000	94.183	-18.2764
265.000000	94.153	-17.8009
269.000000	94.111	-17.1796
272.000000	94.081	-16.6979
276.000000	94.046	-16.0402
280.000000	94.023	-15.3863
285.000000	94.008	-14.5960
290.000000	94.003	-13.8927
295.000000	93.992	-13.2947
300.000000	93.968	-12.7148
304.000000	93.945	-12.2254
307.000000	93.928	-11.8521
311.000000	93.908	-11.3688
315.000000	93.887	-10.9036
320.000000	93.861	-10.2968
325.000000	93.839	-9.6380
330.000000	93.824	-8.9679
335.000000	93.814	-8.3236
340.000000	93.809	-7.7216
345.000000	93.803	-7.1482
350.000000	93.794	-6.5866
355.000000	93.786	-6.0340
360.000000	93.781	-5.4802
365.000000	93.778	-4.9139
370.000000	93.777	-4.3473
375.000000	93.776	-3.8036
382.000000	93.778	-3.1005
387.000000	93.781	-2.6265
395.000000	93.789	-1.8808
400.000000	93.797	-1.4090
406.000000	93.808	-0.8331
412.000000	93.818	-0.2723
418.000000	93.826	0.2753
425.000000	93.836	0.9255
431.000000	93.851	1.4913
437.000000	93.872	2.0411
444.000000	93.903	2.6404
450.000000	93.931	3.1010
455.000000	93.953	3.4247
462.000000	93.977	3.7959
468.000000	93.988	4.1174
475.000000	93.997	4.5561
482.000000	94.007	5.0261
487.000000	94.013	5.3513
494.000000	94.019	5.8111
500.000000	94.024	6.2364
508.000000	94.038	6.8105
515.000000	94.051	7.2795
522.000000	94.062	7.7265
530.000000	94.072	8.2533
538.000000	94.085	8.7994
545.000000	94.099	9.2687
552.000000	94.116	9.7322
560.000000	94.138	10.2470
570.000000	94.166	10.8610
580.000000	94.192	11.4717
590.000000	94.215	12.0945
600.000000	94.237	12.7399
608.000000	94.256	13.2519
615.000000	94.272	13.6879
622.000000	94.288	14.1291
630.000000	94.306	14.6648
640.000000	94.337	15.3670
650.000000	94.375	16.0719
660.000000	94.424	16.7591
670.000000	94.481	17.3572
680.000000	94.533	17.8690
690.000000	94.576	18.3667
700.000000	94.611	18.8885
710.000000	94.647	19.4427
720.000000	94.685	20.0051
730.000000	94.724	20.5681
740.000000	94.763	21.1384
750.000000	94.804	21.7192
762.000000	94.856	22.4263
775.000000	94.919	23.1970
788.000000	94.986	23.9720
800.000000	95.053	24.7038
812.000000	95.129	25.4544
825.000000	95.227	26.2196
838.000000	95.330	26.8598
850.000000	95.418	27.3769
862.000000	95.500	27.8842
875.000000	95.585	28.4501
885.000000	95.652	28.8994
900.000000	95.757	29.5678
912.000000	95.842	30.1047
925.000000	95.939	30.6850
938.000000	96.041	31.2370
950.000000	96.139	31.7032
962.000000	96.237	32.1365
975.000000	96.342	32.5879
988.000000	96.447	33.0287
1000.000000	96.544	33.4292
1015.000000	96.668	33.9407
1030.000000	96.805	34.4440
1044.000000	96.945	34.8417
1060.000000	97.106	35.1455
1075.000000	97.248	35.3243
1090.000000	97.380	35.4635
1106.000000	97.514	35.5848
1120.000000	97.625	35.6730
1138.000000	97.762	35.7796
1150.000000	97.848	35.8551
1172.000000	98.003	36.0128
1180.000000	98.060	36.0782
1206.000000	98.258	36.2466
1220.000000	98.367	36.2449
1241.000000	98.516	36.1384
1250.000000	98.574	36.0795
1265.000000	98.664	35.9862
1280.000000	98.747	35.9070
1315.000000	98.924	35.7915
1320.000000	98.948	35.7780
1340.000000	99.041	35.7265
1360.000000	99.126	35.7014
1380.000000	99.205	35.7353
1400.000000	99.285	35.8537
1430.000000	99.428	36.0769
1450.000000	99.530	36.1511
1475.000000	99.651	36.1898
1500.000000	99.763	36.2253
1525.000000	99.867	36.3005
1550.000000	99.970	36.4450
1575.000000	100.085	36.6465
1600.000000	100.214	36.8009
1625.000000	100.344	36.8553
1650.000000	100.465	36.8640
1675.000000	100.577	36.8795
1700.000000	100.686	36.9160
1725.000000	100.790	36.9612
1750.000000	100.889	37.0382
1775.000000	100.986	37.1945
1800.000000	101.094	37.4298
1825.000000	101.215	37.6655
1850.000000	101.343	37.8651
1875.000000	101.473	38.0517
1900.000000	101.605	38.2556
1925.000000	101.745	38.4952
1950.000000	101.900	38.7525
1975.000000	102.076	38.9477
2000.000000	102.263	38.9995
2030.000000	102.485	38.8718
2060.000000	102.692	38.6163
2090.000000	102.882	38.3124
2120.000000	103.058	38.0160
2140.000000	103.170	37.8558
2180.000000	103.401	37.6754
2200.000000	103.530	37.6165
2240.000000	103.813	37.4093
2270.000000	104.040	37.1101
2300.000000	104.270	36.6802
2330.000000	104.500	36.1435
2360.000000	104.730	35.4969
2400.000000	105.030	34.4297
2430.000000	105.241	33.4980
2470.000000	105.502	32.1400
2500.000000	105.682	31.0605
2540.000000	105.901	29.6028
2580.000000	106.111	28.1616
2620.000000	106.319	26.6642
2650.000000	106.469	25.4714
2690.000000	106.656	23.8114
2720.000000	106.789	22.5399
2760.000000	106.964	20.7812
2800.000000	107.132	18.8855
2850.000000	107.317	16.2955
2900.000000	107.459	13.5031
2950.000000	107.549	10.6298
3000.000000	107.599	7.7298
3040.000000	107.608	5.3683
3070.000000	107.595	3.5848
3110.000000	107.550	1.2240
3150.000000	107.479	-1.1152
3200.000000	107.348	-4.0449
3250.000000	107.154	-6.9562
3300.000000	106.879	-9.7042
3350.000000	106.526	-12.0315
3400.000000	106.124	-13.7596
3450.000000	105.709	-14.8570
3500.000000	105.310	-15.3575
3550.000000	104.954	-15.3754
3600.000000	104.654	-15.0994
3650.000000	104.409	-14.7021
3700.000000	104.205	-14.2771
3750.000000	104.031	-13.8373
3820.000000	103.830	-13.2470
3870.000000	103.705	-12.8450
3950.000000	103.534	-12.1473
4000.000000	103.451	-11.7076
4060.000000	103.370	-11.2438
4120.000000	103.300	-10.8351
4180.000000	103.239	-10.4372
4250.000000	103.177	-9.9681
4310.000000	103.135	-9.5131
4370.000000	103.117	-9.0249
4440.000000	103.129	-8.5421
4500.000000	103.159	-8.2794
4550.000000	103.191	-8.1699
4620.000000	103.236	-8.1813
4680.000000	103.269	-8.2991
4750.000000	103.305	-8.5026
4820.000000	103.343	-8.8080
4870.000000	103.370	-9.1233
4940.000000	103.400	-9.7066
5000.000000	103.410	-10.3322
5080.000000	103.391	-11.2741
5150.000000	103.345	-12.1012
5220.000000	103.279	-12.9047
5300.000000	103.182	-13.8124
5380.000000	103.058	-14.7066
5450.000000	102.920	-15.4473
5520.000000	102.755	-16.0691
5600.000000	102.544	-16.5641
5700.000000	102.264	-16.8610
5800.000000	101.978	-16.8506
5900.000000	101.686	-16.5463
6000.000000	101.396	-15.8684
6080.000000	101.178	-15.0610
6150.000000	101.005	-14.1984
6220.000000	100.848	-13.2269
6300.000000	100.687	-11.9950
6400.000000	100.517	-10.2510
6500.000000	100.390	-8.3011
6600.000000	100.315	-6.2231
6700.000000	100.291	-4.0765
6800.000000	100.320	-1.8615
6900.000000	100.412	0.3831
7000.000000	100.575	2.5469
7100.000000	100.804	4.5204
7200.000000	101.098	6.2481
7300.000000	101.459	7.6682
7400.000000	101.888	8.6589
7500.000000	102.381	9.0427
7620.000000	103.027	8.4414
7750.000000	103.728	6.2444
7880.000000	104.337	2.3520
8000.000000	104.722	-2.5623
8120.000000	104.865	-8.2900
8250.000000	104.704	-14.7000
8380.000000	104.211	-20.4369
8500.000000	103.521	-24.3320
8620.000000	102.719	-26.3473
8750.000000	101.918	-26.4482
8850.000000	101.461	-25.7794
9000.000000	100.977	-25.3159
9120.000000	100.582	-25.3580
9250.000000	100.105	-24.8671
9380.000000	99.670	-23.5497
9500.000000	99.372	-21.9027
9620.000000	99.189	-20.2131
9750.000000	99.114	-18.6314
9880.000000	99.154	-17.5857
10000.000000	99.273	-17.3581
10150.000000	99.479	-18.3680
10300.000000	99.665	-21.0292
10440.000000	99.722	-25.0192
10600.000000	99.523	-30.9492
10750.000000	98.994	-37.0950
10900.000000	98.101	-42.9084
11060.000000	96.769	-47.7367
11200.000000	95.346	-50.1205
11380.000000	93.285	-49.9289
11500.000000	91.854	-47.4300
11720.000000	89.376	-37.6670
11800.000000	88.601	-32.6153
12060.000000	86.872	-13.0363
12200.000000	86.507	-2.3477
12410.000000	86.574	11.1537
12500.000000	86.743	15.6399
12650.000000	87.088	21.4730
12800.000000	87.427	25.6860
13150.000000	87.953	32.1396
13200.000000	87.996	32.8861
13400.000000	88.104	35.7527
13600.000000	88.142	38.6433
13800.000000	88.155	41.6628
14000.000000	88.179	44.7568
14300.000000	88.279	49.1001
14500.000000	88.374	51.4832
14750.000000	88.475	53.7879
15000.000000	88.530	55.5108
15250.000000	88.527	56.7781
15500.000000	88.450	57.7926
15750.000000	88.312	58.9524
16000.000000	88.189	60.5046
16250.000000	88.196	62.1739
16500.000000	88.430	63.0365
16750.000000	88.891	61.7059
17000.000000	89.413	56.8721
17250.000000	89.676	48.0776
17500.000000	89.322	36.2854
17750.000000	88.121	23.7533
18000.000000	86.054	13.1699
18250.000000	83.244	7.2145
18500.000000	79.887	9.4866
18750.000000	76.331	24.3432
19000.000000	73.144	47.4191
19250.000000	70.766	66.5904
19500.000000	69.082	80.6426
19750.000000	67.733	93.4671
20000.000000	66.526	107.6005
