* Measurement data measured by REW V5.20.13
* Source: EXCL: Microphone (Realtek(R) Audio), MICROPHONE (Master Volume), L, volume: 1.000
* Format: 256k Log Swept Sine, 1 sweep at -12.0 dBFS with no timing reference
* Dated: Aug 22, 2023 1:51:48 PM
* REW Settings:
*  C-weighting compensation: Off
*  Target level: 75.0 dB
* Note: QoA Vesper 2 L
* Measurement: QoA Vesper 2 L
* Smoothing: 1/12 octave
* Frequency Step: 1/48 octave
* Start Frequency: 20.000 Hz
*
* Freq(Hz)	SPL(dB)	Phase(degrees)
20.000000	109.339	26.7938
20.299999	109.357	26.2941
20.600000	109.375	25.8181
20.900000	109.392	25.3716
21.200001	109.410	24.9559
21.400000	109.424	24.6917
21.799999	109.454	24.1801
22.000000	109.471	23.9246
22.400000	109.505	23.3998
22.700001	109.529	22.9913
23.000000	109.549	22.5751
23.299999	109.565	22.1624
23.600000	109.576	21.7634
24.000000	109.586	21.2642
24.299999	109.592	20.9159
24.700001	109.600	20.4788
25.000000	109.606	20.1624
25.400000	109.616	19.7441
25.799999	109.626	19.3212
26.200001	109.635	18.8898
26.500000	109.642	18.5609
26.900000	109.650	18.1182
27.200001	109.655	17.7872
27.600000	109.660	17.3544
28.000000	109.667	16.9397
28.500000	109.678	16.4494
29.000000	109.695	15.9756
29.500000	109.719	15.4962
30.000000	109.744	15.0013
30.400000	109.763	14.5996
30.700001	109.775	14.2997
31.100000	109.789	13.9067
31.500000	109.798	13.5281
32.000000	109.800	13.0938
32.500000	109.794	12.7377
33.000000	109.785	12.4863
33.500000	109.784	12.3161
34.000000	109.797	12.1451
34.500000	109.816	11.8835
35.000000	109.829	11.5032
35.500000	109.824	11.0586
36.000000	109.802	10.6426
36.500000	109.774	10.3127
37.000000	109.754	10.0556
37.500000	109.748	9.8099
38.200001	109.758	9.3940
38.700001	109.771	9.0511
39.500000	109.804	8.5093
40.000000	109.839	8.1624
40.599998	109.892	7.6567
41.200001	109.937	7.0135
41.799999	109.953	6.3370
42.500000	109.934	5.7471
43.099998	109.915	5.4878
43.700001	109.909	5.3218
44.400002	109.906	5.0852
45.000000	109.889	4.8842
45.500000	109.870	4.7820
46.200001	109.859	4.6652
46.799999	109.859	4.4324
47.500000	109.842	3.9875
48.200001	109.796	3.5662
48.700001	109.759	3.3589
49.400002	109.723	3.1563
50.000000	109.707	2.9927
50.799999	109.702	2.7366
51.500000	109.701	2.4626
52.200001	109.692	2.1890
53.000000	109.674	1.9973
53.799999	109.666	1.9387
54.500000	109.675	1.8806
55.200001	109.689	1.7560
56.000000	109.704	1.5447
57.000000	109.723	1.1501
58.000000	109.729	0.5670
59.000000	109.701	-0.0566
60.000000	109.646	-0.4804
60.799999	109.605	-0.6083
61.500000	109.585	-0.6266
62.200001	109.578	-0.6446
63.000000	109.579	-0.7143
64.000000	109.585	-0.8706
65.000000	109.598	-1.1561
66.000000	109.605	-1.6003
67.000000	109.600	-2.0881
68.000000	109.590	-2.5122
69.000000	109.584	-2.8387
70.000000	109.584	-3.0988
71.000000	109.580	-3.3453
72.000000	109.565	-3.6018
73.000000	109.539	-3.8900
74.000000	109.511	-4.2794
75.000000	109.481	-4.8205
76.199997	109.441	-5.5439
77.500000	109.418	-6.1447
78.800003	109.450	-6.3456
80.000000	109.548	-6.3120
81.199997	109.659	-6.4830
82.500000	109.687	-6.9272
83.800003	109.606	-7.2184
85.000000	109.499	-7.3556
86.199997	109.395	-7.5447
87.500000	109.304	-7.8242
88.500000	109.254	-8.0581
90.000000	109.198	-8.3395
91.199997	109.152	-8.3921
92.500000	109.108	-8.2955
93.800003	109.085	-8.3337
95.000000	109.070	-8.8009
96.199997	109.037	-9.6466
97.500000	108.987	-10.6667
98.800003	108.945	-11.4811
100.000000	108.929	-11.8586
101.500000	108.944	-11.8360
103.000000	108.969	-11.5490
104.400002	108.969	-11.3004
106.000000	108.934	-11.2211
107.500000	108.892	-11.4001
109.000000	108.862	-11.7224
110.599998	108.847	-12.0061
112.000000	108.826	-12.1029
113.800003	108.737	-12.1445
115.000000	108.611	-12.2853
117.199997	108.246	-12.8519
118.000000	108.103	-13.0070
120.599998	107.945	-12.8936
122.000000	108.104	-13.0520
124.099998	108.360	-13.7172
125.000000	108.418	-13.8384
126.500000	108.447	-13.6792
128.000000	108.423	-13.3464
131.500000	108.299	-13.1899
132.000000	108.283	-13.2112
134.000000	108.246	-13.2227
136.000000	108.242	-13.1856
138.000000	108.255	-13.5317
140.000000	108.234	-14.3771
143.000000	108.114	-15.4022
145.000000	107.995	-15.6450
147.500000	107.798	-15.8735
150.000000	107.600	-16.0185
152.500000	107.505	-15.9048
155.000000	107.467	-15.7482
157.500000	107.460	-15.5798
160.000000	107.585	-15.8880
162.500000	107.767	-16.9174
165.000000	107.833	-17.6359
167.500000	107.809	-17.5120
170.000000	107.762	-17.2220
172.500000	107.710	-17.0909
175.000000	107.659	-17.0443
177.500000	107.607	-17.0164
180.000000	107.558	-17.0052
182.500000	107.514	-17.0089
185.000000	107.471	-17.0206
187.500000	107.430	-17.0331
190.000000	107.396	-17.0417
192.500000	107.362	-17.0327
195.000000	107.326	-17.0215
197.500000	107.290	-17.0834
200.000000	107.255	-17.2161
203.000000	107.221	-17.3601
206.000000	107.194	-17.4791
209.000000	107.167	-17.6437
212.000000	107.134	-17.8311
214.000000	107.106	-17.9299
218.000000	107.045	-18.0356
220.000000	107.015	-18.0604
224.000000	106.962	-18.1071
227.000000	106.925	-18.1742
230.000000	106.885	-18.2640
233.000000	106.839	-18.3252
236.000000	106.791	-18.3439
240.000000	106.725	-18.4383
243.000000	106.671	-18.6338
247.000000	106.600	-18.8658
250.000000	106.561	-18.8671
254.000000	106.527	-18.7209
258.000000	106.502	-18.6100
262.000000	106.472	-18.6216
265.000000	106.439	-18.6725
269.000000	106.387	-18.7058
272.000000	106.351	-18.6792
276.000000	106.311	-18.5806
280.000000	106.277	-18.4526
285.000000	106.239	-18.3342
290.000000	106.203	-18.3104
295.000000	106.159	-18.3668
300.000000	106.106	-18.4313
304.000000	106.059	-18.4669
307.000000	106.025	-18.4871
311.000000	105.984	-18.4991
315.000000	105.951	-18.4781
320.000000	105.922	-18.4023
325.000000	105.909	-18.3054
330.000000	105.898	-18.2437
335.000000	105.857	-18.2621
340.000000	105.792	-18.3461
345.000000	105.728	-18.4564
350.000000	105.670	-18.5415
355.000000	105.615	-18.5579
360.000000	105.561	-18.5312
365.000000	105.507	-18.5097
370.000000	105.453	-18.4956
375.000000	105.399	-18.4702
382.000000	105.331	-18.3997
387.000000	105.285	-18.3284
395.000000	105.212	-18.1960
400.000000	105.167	-18.1179
406.000000	105.113	-18.0309
412.000000	105.059	-17.9414
418.000000	105.003	-17.8326
425.000000	104.938	-17.6670
431.000000	104.888	-17.5052
437.000000	104.845	-17.3466
444.000000	104.801	-17.1763
450.000000	104.767	-17.0616
455.000000	104.738	-17.0088
462.000000	104.690	-16.9857
468.000000	104.639	-16.9564
475.000000	104.576	-16.8690
482.000000	104.513	-16.7443
487.000000	104.468	-16.6496
494.000000	104.403	-16.4979
500.000000	104.348	-16.3356
508.000000	104.282	-16.0997
515.000000	104.226	-15.9039
522.000000	104.169	-15.7090
530.000000	104.102	-15.4584
538.000000	104.037	-15.1775
545.000000	103.983	-14.9229
552.000000	103.931	-14.6644
560.000000	103.874	-14.3729
570.000000	103.803	-14.0217
580.000000	103.729	-13.6613
590.000000	103.654	-13.2717
600.000000	103.579	-12.8383
608.000000	103.521	-12.4710
615.000000	103.471	-12.1434
622.000000	103.420	-11.7986
630.000000	103.361	-11.3641
640.000000	103.294	-10.7704
650.000000	103.236	-10.1478
660.000000	103.189	-9.5215
670.000000	103.152	-8.9464
680.000000	103.111	-8.4238
690.000000	103.061	-7.8950
700.000000	103.005	-7.3128
710.000000	102.949	-6.6628
720.000000	102.898	-5.9547
730.000000	102.849	-5.1833
740.000000	102.808	-4.3339
750.000000	102.778	-3.4160
762.000000	102.761	-2.2617
775.000000	102.768	-0.9852
788.000000	102.800	0.2974
800.000000	102.856	1.4794
812.000000	102.941	2.6223
825.000000	103.069	3.7007
838.000000	103.217	4.5011
850.000000	103.351	4.9993
862.000000	103.474	5.3322
875.000000	103.591	5.5691
885.000000	103.672	5.6904
900.000000	103.777	5.7941
912.000000	103.847	5.8416
925.000000	103.911	5.8913
938.000000	103.966	5.9536
950.000000	104.010	6.0249
962.000000	104.050	6.1132
975.000000	104.089	6.2299
988.000000	104.124	6.3676
1000.000000	104.155	6.5229
1015.000000	104.194	6.7782
1030.000000	104.245	7.0792
1044.000000	104.306	7.3307
1060.000000	104.381	7.5145
1075.000000	104.445	7.6089
1090.000000	104.503	7.6772
1106.000000	104.559	7.7395
1120.000000	104.606	7.7892
1138.000000	104.662	7.8564
1150.000000	104.699	7.9064
1172.000000	104.766	8.0123
1180.000000	104.792	8.0555
1206.000000	104.888	8.1450
1220.000000	104.941	8.1096
1241.000000	105.007	7.9673
1250.000000	105.029	7.8982
1265.000000	105.059	7.7948
1280.000000	105.085	7.7159
1315.000000	105.135	7.6343
1320.000000	105.142	7.6320
1340.000000	105.171	7.6458
1360.000000	105.201	7.6989
1380.000000	105.237	7.7823
1400.000000	105.282	7.8777
1430.000000	105.373	7.9090
1450.000000	105.434	7.7801
1475.000000	105.493	7.5168
1500.000000	105.530	7.2381
1525.000000	105.553	7.0015
1550.000000	105.570	6.8376
1575.000000	105.593	6.7324
1600.000000	105.625	6.5934
1625.000000	105.653	6.3684
1650.000000	105.667	6.1042
1675.000000	105.669	5.8564
1700.000000	105.661	5.6453
1725.000000	105.646	5.4694
1750.000000	105.620	5.3513
1775.000000	105.590	5.3344
1800.000000	105.566	5.4165
1825.000000	105.554	5.5280
1850.000000	105.546	5.6236
1875.000000	105.537	5.7126
1900.000000	105.526	5.8245
1925.000000	105.516	5.9869
1950.000000	105.512	6.2010
1975.000000	105.520	6.4181
2000.000000	105.535	6.5864
2030.000000	105.553	6.7233
2060.000000	105.567	6.8119
2090.000000	105.570	6.8630
2120.000000	105.554	6.9334
2140.000000	105.532	7.0504
2180.000000	105.485	7.5898
2200.000000	105.475	8.0036
2240.000000	105.502	8.9508
2270.000000	105.566	9.6194
2300.000000	105.658	10.1389
2330.000000	105.763	10.4504
2360.000000	105.862	10.5399
2400.000000	105.958	10.4100
2430.000000	105.991	10.3021
2470.000000	105.999	10.4258
2500.000000	106.006	10.8109
2540.000000	106.058	11.6539
2580.000000	106.193	12.5906
2620.000000	106.396	13.2515
2650.000000	106.566	13.4708
2690.000000	106.788	13.4705
2720.000000	106.950	13.3340
2760.000000	107.166	13.0018
2800.000000	107.382	12.4573
2850.000000	107.637	11.4581
2900.000000	107.863	10.1516
2950.000000	108.055	8.6393
3000.000000	108.221	6.9470
3040.000000	108.329	5.4396
3070.000000	108.391	4.2397
3110.000000	108.449	2.6003
3150.000000	108.483	0.9404
3200.000000	108.498	-1.1860
3250.000000	108.478	-3.4013
3300.000000	108.413	-5.6927
3350.000000	108.296	-7.9814
3400.000000	108.126	-10.1974
3450.000000	107.900	-12.2600
3500.000000	107.621	-14.0270
3550.000000	107.309	-15.4028
3600.000000	106.988	-16.4144
3650.000000	106.671	-17.1541
3700.000000	106.359	-17.6945
3750.000000	106.053	-18.0629
3820.000000	105.631	-18.3431
3870.000000	105.329	-18.3730
3950.000000	104.852	-18.0532
4000.000000	104.569	-17.6604
4060.000000	104.245	-17.0718
4120.000000	103.931	-16.3724
4180.000000	103.625	-15.5480
4250.000000	103.273	-14.4130
4310.000000	102.978	-13.2404
4370.000000	102.697	-11.8715
4440.000000	102.400	-10.1000
4500.000000	102.167	-8.4812
4550.000000	101.988	-7.0656
4620.000000	101.755	-4.9807
4680.000000	101.571	-3.0667
4750.000000	101.384	-0.6490
4820.000000	101.238	1.9211
4870.000000	101.161	3.8044
4940.000000	101.091	6.4712
5000.000000	101.064	8.7657
5080.000000	101.072	11.8445
5150.000000	101.130	14.5713
5220.000000	101.246	17.2689
5300.000000	101.454	20.1748
5380.000000	101.732	22.7356
5450.000000	102.015	24.5964
5520.000000	102.320	26.0737
5600.000000	102.682	27.2729
5700.000000	103.122	27.9998
5800.000000	103.502	27.9347
5900.000000	103.781	27.3508
6000.000000	103.958	26.6549
6080.000000	104.043	26.2151
6150.000000	104.090	25.9740
6220.000000	104.122	25.8798
6300.000000	104.147	25.9647
6400.000000	104.180	26.3710
6500.000000	104.240	27.0529
6600.000000	104.340	27.8822
6700.000000	104.483	28.7465
6800.000000	104.670	29.5909
6900.000000	104.908	30.3513
7000.000000	105.198	30.9105
7100.000000	105.532	31.1427
7200.000000	105.895	30.9727
7300.000000	106.279	30.3449
7400.000000	106.668	29.1746
7500.000000	107.038	27.3936
7620.000000	107.424	24.4714
7750.000000	107.734	20.4799
7880.000000	107.901	15.8265
8000.000000	107.900	11.2231
8120.000000	107.743	6.7012
8250.000000	107.413	2.3001
8380.000000	106.954	-1.2727
8500.000000	106.460	-3.7076
8620.000000	105.935	-5.3137
8750.000000	105.369	-6.1605
8850.000000	104.960	-6.2178
9000.000000	104.441	-5.4881
9120.000000	104.147	-4.4247
9250.000000	103.984	-3.0624
9380.000000	104.016	-1.7851
9500.000000	104.242	-1.0906
9620.000000	104.648	-1.4136
9750.000000	105.223	-3.6975
9880.000000	105.784	-8.8497
10000.000000	106.099	-16.4514
10150.000000	105.954	-28.4719
10300.000000	105.056	-39.6400
10440.000000	103.604	-45.9298
10600.000000	101.529	-47.0819
10750.000000	99.610	-43.9905
10900.000000	98.090	-39.3950
11060.000000	97.041	-34.9262
11200.000000	96.477	-32.2037
11380.000000	95.939	-30.4005
11500.000000	95.580	-29.9435
11720.000000	94.796	-29.6885
11800.000000	94.465	-29.5685
12060.000000	93.267	-28.4674
12200.000000	92.581	-27.3212
12410.000000	91.554	-24.8967
12500.000000	91.125	-23.6345
12650.000000	90.435	-21.2849
12800.000000	89.789	-18.6935
13150.000000	88.484	-12.2152
13200.000000	88.321	-11.2817
13400.000000	87.722	-7.6216
13600.000000	87.199	-4.1584
13800.000000	86.734	-0.9773
14000.000000	86.308	1.8949
14300.000000	85.702	5.7332
14500.000000	85.310	8.0961
14750.000000	84.842	10.9062
15000.000000	84.421	13.5367
15250.000000	84.078	15.8087
15500.000000	83.819	17.3494
15750.000000	83.605	17.7356
16000.000000	83.338	16.8406
16250.000000	82.914	15.1766
16500.000000	82.309	13.7621
16750.000000	81.639	13.1744
17000.000000	81.089	12.7285
17250.000000	80.723	10.9738
17500.000000	80.408	6.8021
17750.000000	79.918	0.3091
18000.000000	79.126	-7.4425
18250.000000	78.061	-15.9319
18500.000000	76.667	-24.4832
18750.000000	74.780	-30.5476
19000.000000	72.392	-32.0168
19250.000000	69.658	-28.9932
19500.000000	66.765	-22.5055
19750.000000	63.852	-13.0086
20000.000000	61.002	-0.4249
