* Measurement data measured by REW V5.20.5
* Source: USB Sound Device        , MICROPHONE, R, volume: 0.402
* Format: 256k Log Swept Sine, 1 sweep at -6.0 dBFS with no timing reference
* Dated: 19 Jul, 2023 10:17:05 PM
* REW Settings:
*  C-weighting compensation: Off
*  Target level: 75.0 dB
* Note: 
* Measurement: KZ KRILA DDUU Jul 19
* Smoothing: None
* Frequency Step: 1/48 octave
* Start Frequency: 20.000 Hz
*
* Freq(Hz)	SPL(dB)	Phase(degrees)
20.000000	92.045	8.0115
20.299999	92.035	7.4800
20.600000	92.024	6.9620
20.900000	92.014	6.4523
21.200001	92.004	5.9478
21.400000	91.995	5.6171
21.799999	91.978	4.9758
22.000000	91.968	4.6672
22.400000	91.951	4.0718
22.700001	91.939	3.6344
23.000000	91.927	3.1948
23.299999	91.914	2.7519
23.600000	91.899	2.3115
24.000000	91.877	1.7411
24.299999	91.859	1.3318
24.700001	91.835	0.8065
25.000000	91.819	0.4188
25.400000	91.798	-0.0989
25.799999	91.775	-0.6162
26.200001	91.752	-1.1240
26.500000	91.734	-1.4957
26.900000	91.711	-1.9813
27.200001	91.693	-2.3417
27.600000	91.670	-2.8185
28.000000	91.646	-3.2867
28.500000	91.616	-3.8511
29.000000	91.586	-4.3918
29.500000	91.556	-4.9152
30.000000	91.528	-5.4258
30.400000	91.505	-5.8270
30.700001	91.488	-6.1244
31.100000	91.465	-6.5154
31.500000	91.440	-6.8966
32.000000	91.410	-7.3547
32.500000	91.380	-7.7999
33.000000	91.352	-8.2498
33.500000	91.322	-8.7069
34.000000	91.288	-9.1530
34.500000	91.253	-9.5722
35.000000	91.221	-9.9702
35.500000	91.191	-10.3649
36.000000	91.162	-10.7666
36.500000	91.132	-11.1735
37.000000	91.099	-11.5751
37.500000	91.065	-11.9564
38.200001	91.019	-12.4427
38.700001	90.989	-12.7759
39.500000	90.944	-13.3342
40.000000	90.912	-13.6803
40.599998	90.872	-14.0626
41.200001	90.836	-14.4271
41.799999	90.801	-14.8061
42.500000	90.756	-15.2554
43.099998	90.716	-15.6182
43.700001	90.677	-15.9626
44.400002	90.633	-16.3583
45.000000	90.595	-16.6953
45.500000	90.565	-16.9732
46.200001	90.521	-17.3577
46.799999	90.484	-17.6825
47.500000	90.439	-18.0482
48.200001	90.395	-18.3947
48.700001	90.364	-18.6345
49.400002	90.321	-18.9615
50.000000	90.285	-19.2280
50.799999	90.241	-19.5803
51.500000	90.201	-19.9084
52.200001	90.158	-20.2286
53.000000	90.107	-20.5548
53.799999	90.060	-20.8663
54.500000	90.019	-21.1384
55.200001	89.978	-21.4100
56.000000	89.930	-21.7184
57.000000	89.871	-22.0782
58.000000	89.814	-22.4322
59.000000	89.758	-22.7916
60.000000	89.701	-23.1381
60.799999	89.655	-23.4025
61.500000	89.615	-23.6229
62.200001	89.575	-23.8279
63.000000	89.531	-24.0475
64.000000	89.479	-24.3265
65.000000	89.425	-24.6021
66.000000	89.372	-24.8710
67.000000	89.318	-25.1549
68.000000	89.261	-25.4094
69.000000	89.211	-25.6386
70.000000	89.162	-25.9059
71.000000	89.107	-26.1431
72.000000	89.057	-26.3441
73.000000	89.006	-26.5547
74.000000	88.956	-26.7344
75.000000	88.910	-26.9266
76.199997	88.850	-27.1829
77.500000	88.786	-27.4135
78.800003	88.724	-27.6660
80.000000	88.664	-27.8652
81.199997	88.611	-28.0524
82.500000	88.551	-28.2488
83.800003	88.498	-28.4524
85.000000	88.438	-28.6459
86.199997	88.386	-28.7870
87.500000	88.326	-28.9753
88.500000	88.284	-29.0836
90.000000	88.220	-29.2877
91.199997	88.169	-29.4300
92.500000	88.114	-29.5670
93.800003	88.064	-29.6931
95.000000	88.016	-29.8179
96.199997	87.970	-29.9344
97.500000	87.919	-30.0751
98.800003	87.864	-30.1765
100.000000	87.822	-30.2617
101.500000	87.764	-30.4093
103.000000	87.707	-30.5145
104.400002	87.655	-30.6134
106.000000	87.599	-30.6888
107.500000	87.546	-30.8453
109.000000	87.491	-30.9010
110.599998	87.432	-31.0031
112.000000	87.391	-31.0590
113.800003	87.331	-31.1667
115.000000	87.292	-31.2466
117.199997	87.221	-31.3521
118.000000	87.195	-31.3829
120.599998	87.114	-31.4486
122.000000	87.075	-31.5273
124.099998	87.008	-31.5768
125.000000	86.983	-31.6228
126.500000	86.933	-31.6595
128.000000	86.898	-31.7048
131.500000	86.802	-31.7952
132.000000	86.788	-31.7989
134.000000	86.732	-31.8293
136.000000	86.682	-31.8769
138.000000	86.628	-31.8991
140.000000	86.571	-31.9396
143.000000	86.497	-31.9650
145.000000	86.455	-31.9972
147.500000	86.393	-31.9979
150.000000	86.339	-31.9951
152.500000	86.271	-32.0084
155.000000	86.221	-32.0669
157.500000	86.168	-32.0627
160.000000	86.116	-32.0532
162.500000	86.061	-32.0530
165.000000	86.010	-32.0512
167.500000	85.965	-32.0045
170.000000	85.923	-31.9859
172.500000	85.874	-31.9873
175.000000	85.826	-31.9348
177.500000	85.775	-31.9070
180.000000	85.742	-31.9160
182.500000	85.691	-31.8998
185.000000	85.650	-31.8578
187.500000	85.614	-31.8516
190.000000	85.568	-31.7970
192.500000	85.528	-31.8052
195.000000	85.492	-31.7433
197.500000	85.455	-31.7436
200.000000	85.413	-31.7632
203.000000	85.372	-31.6472
206.000000	85.336	-31.5911
209.000000	85.288	-31.5094
212.000000	85.246	-31.4828
214.000000	85.225	-31.4807
218.000000	85.170	-31.3766
220.000000	85.147	-31.3737
224.000000	85.088	-31.2538
227.000000	85.059	-31.2287
230.000000	85.030	-31.1749
233.000000	84.998	-31.1172
236.000000	84.961	-31.0911
240.000000	84.918	-30.9586
243.000000	84.883	-30.9463
247.000000	84.836	-30.8666
250.000000	84.807	-30.7872
254.000000	84.772	-30.7050
258.000000	84.735	-30.6451
262.000000	84.698	-30.5441
265.000000	84.666	-30.4553
269.000000	84.630	-30.4025
272.000000	84.601	-30.2842
276.000000	84.574	-30.3110
280.000000	84.540	-30.1324
285.000000	84.501	-30.0639
290.000000	84.463	-30.0011
295.000000	84.424	-29.8696
300.000000	84.386	-29.7479
304.000000	84.364	-29.6466
307.000000	84.342	-29.6061
311.000000	84.311	-29.4823
315.000000	84.280	-29.3966
320.000000	84.256	-29.2710
325.000000	84.222	-29.1248
330.000000	84.191	-29.0619
335.000000	84.163	-28.9401
340.000000	84.132	-28.8181
345.000000	84.110	-28.7345
350.000000	84.090	-28.5945
355.000000	84.056	-28.4871
360.000000	84.038	-28.3793
365.000000	84.014	-28.3086
370.000000	83.993	-28.1606
375.000000	83.971	-28.0273
382.000000	83.942	-27.9634
387.000000	83.928	-27.8199
395.000000	83.897	-27.6512
400.000000	83.874	-27.5203
406.000000	83.842	-27.4038
412.000000	83.836	-27.2559
418.000000	83.813	-27.1078
425.000000	83.784	-27.0393
431.000000	83.761	-26.9370
437.000000	83.751	-26.7374
444.000000	83.731	-26.6508
450.000000	83.712	-26.4767
455.000000	83.691	-26.3685
462.000000	83.683	-26.2065
468.000000	83.653	-26.1108
475.000000	83.632	-25.9607
482.000000	83.620	-25.8027
487.000000	83.606	-25.7024
494.000000	83.591	-25.4764
500.000000	83.575	-25.3517
508.000000	83.549	-25.1205
515.000000	83.544	-24.9574
522.000000	83.531	-24.7914
530.000000	83.510	-24.6042
538.000000	83.500	-24.4200
545.000000	83.485	-24.2480
552.000000	83.483	-24.0098
560.000000	83.474	-23.8145
570.000000	83.453	-23.5410
580.000000	83.452	-23.3030
590.000000	83.437	-23.0404
600.000000	83.429	-22.7463
608.000000	83.418	-22.5013
615.000000	83.421	-22.3096
622.000000	83.416	-22.1016
630.000000	83.418	-21.9014
640.000000	83.416	-21.6017
650.000000	83.407	-21.3500
660.000000	83.416	-20.9636
670.000000	83.413	-20.7477
680.000000	83.407	-20.3784
690.000000	83.404	-19.8738
700.000000	83.425	-19.6387
710.000000	83.434	-19.2614
720.000000	83.456	-18.9724
730.000000	83.462	-18.6128
740.000000	83.481	-18.2460
750.000000	83.493	-17.9152
762.000000	83.531	-17.5061
775.000000	83.564	-16.9821
788.000000	83.594	-16.5690
800.000000	83.626	-16.1247
812.000000	83.671	-15.6442
825.000000	83.705	-15.2412
838.000000	83.749	-14.7803
850.000000	83.802	-14.2881
862.000000	83.847	-13.8742
875.000000	83.897	-13.2725
885.000000	83.946	-12.8402
900.000000	84.030	-12.0967
912.000000	84.139	-11.5531
925.000000	84.269	-11.1411
938.000000	84.395	-10.7961
950.000000	84.484	-10.7184
962.000000	84.592	-10.5627
975.000000	84.689	-10.3187
988.000000	84.790	-10.1877
1000.000000	84.883	-9.9428
1015.000000	85.003	-9.9460
1030.000000	85.113	-9.7646
1044.000000	85.216	-9.6809
1060.000000	85.350	-9.6758
1075.000000	85.477	-9.7118
1090.000000	85.582	-9.7172
1106.000000	85.708	-9.7781
1120.000000	85.811	-9.8175
1138.000000	85.941	-9.9545
1150.000000	86.033	-10.0679
1172.000000	86.181	-10.3696
1180.000000	86.228	-10.4417
1206.000000	86.398	-10.7692
1220.000000	86.482	-11.0098
1241.000000	86.608	-11.2919
1250.000000	86.658	-11.4237
1265.000000	86.746	-11.6647
1280.000000	86.825	-11.8862
1315.000000	87.012	-12.4693
1320.000000	87.028	-12.6083
1340.000000	87.135	-12.8767
1360.000000	87.227	-13.1914
1380.000000	87.320	-13.5190
1400.000000	87.403	-13.8708
1430.000000	87.543	-14.3344
1450.000000	87.623	-14.6370
1475.000000	87.730	-15.0061
1500.000000	87.837	-15.3469
1525.000000	87.940	-15.7135
1550.000000	88.043	-16.0472
1575.000000	88.135	-16.3690
1600.000000	88.239	-16.7571
1625.000000	88.345	-17.0956
1650.000000	88.438	-17.4252
1675.000000	88.533	-17.7695
1700.000000	88.638	-18.1004
1725.000000	88.737	-18.4778
1750.000000	88.837	-18.7987
1775.000000	88.934	-19.2185
1800.000000	89.032	-19.5341
1825.000000	89.134	-19.9458
1850.000000	89.234	-20.2709
1875.000000	89.334	-20.6681
1900.000000	89.434	-21.0556
1925.000000	89.539	-21.4656
1950.000000	89.635	-21.9353
1975.000000	89.731	-22.3178
2000.000000	89.834	-22.7198
2030.000000	89.952	-23.2515
2060.000000	90.066	-23.8406
2090.000000	90.176	-24.4367
2120.000000	90.292	-25.0342
2140.000000	90.366	-25.4561
2180.000000	90.517	-26.2984
2200.000000	90.592	-26.7457
2240.000000	90.730	-27.6516
2270.000000	90.837	-28.3227
2300.000000	90.941	-29.0650
2330.000000	91.036	-29.7849
2360.000000	91.131	-30.5730
2400.000000	91.253	-31.6071
2430.000000	91.333	-32.3904
2470.000000	91.443	-33.4724
2500.000000	91.525	-34.2449
2540.000000	91.622	-35.3811
2580.000000	91.706	-36.4834
2620.000000	91.787	-37.6447
2650.000000	91.851	-38.4595
2690.000000	91.926	-39.5701
2720.000000	91.975	-40.4479
2760.000000	92.033	-41.5580
2800.000000	92.090	-42.6633
2850.000000	92.151	-44.0599
2900.000000	92.196	-45.4149
2950.000000	92.240	-46.7738
3000.000000	92.269	-48.0729
3040.000000	92.300	-49.1301
3070.000000	92.320	-49.9569
3110.000000	92.333	-50.9629
3150.000000	92.343	-51.9674
3200.000000	92.353	-53.1992
3250.000000	92.350	-54.4017
3300.000000	92.361	-55.5917
3350.000000	92.354	-56.8003
3400.000000	92.350	-57.8981
3450.000000	92.329	-59.0754
3500.000000	92.315	-60.1550
3550.000000	92.292	-61.2617
3600.000000	92.269	-62.3622
3650.000000	92.238	-63.4258
3700.000000	92.200	-64.4724
3750.000000	92.165	-65.5541
3820.000000	92.095	-67.0206
3870.000000	92.041	-68.0813
3950.000000	91.940	-69.7197
4000.000000	91.864	-70.7443
4060.000000	91.768	-71.8701
4120.000000	91.652	-73.0238
4180.000000	91.536	-74.1270
4250.000000	91.372	-75.3494
4310.000000	91.221	-76.3252
4370.000000	91.060	-77.1605
4440.000000	90.865	-78.0463
4500.000000	90.678	-78.7197
4550.000000	90.525	-79.1881
4620.000000	90.297	-79.7413
4680.000000	90.108	-80.0601
4750.000000	89.882	-80.4454
4820.000000	89.673	-80.7532
4870.000000	89.493	-81.0197
4940.000000	89.234	-81.3408
5000.000000	88.979	-81.4788
5080.000000	88.626	-81.3090
5150.000000	88.311	-80.9572
5220.000000	87.993	-80.3568
5300.000000	87.650	-79.4943
5380.000000	87.314	-78.2880
5450.000000	87.027	-76.9297
5520.000000	86.756	-75.5885
5600.000000	86.456	-73.7638
5700.000000	86.119	-71.3740
5800.000000	85.799	-68.7501
5900.000000	85.516	-65.8981
6000.000000	85.263	-62.7819
6080.000000	85.096	-60.3148
6150.000000	84.938	-57.8191
6220.000000	84.823	-55.5480
6300.000000	84.706	-52.6713
6400.000000	84.580	-49.1618
6500.000000	84.508	-45.4200
6600.000000	84.459	-41.7034
6700.000000	84.451	-37.8115
6800.000000	84.481	-34.0223
6900.000000	84.561	-29.8729
7000.000000	84.649	-26.0952
7100.000000	84.866	-22.0408
7200.000000	85.076	-18.0331
7300.000000	85.353	-14.2631
7400.000000	85.672	-10.4481
7500.000000	86.066	-7.0908
7620.000000	86.598	-3.0016
7750.000000	87.295	0.5496
7880.000000	88.086	3.6114
8000.000000	88.915	5.4771
8120.000000	89.845	6.0541
8250.000000	90.886	4.8762
8380.000000	91.847	1.0229
8500.000000	92.515	-5.0377
8620.000000	92.772	-12.6751
8750.000000	92.518	-20.9146
8850.000000	91.981	-26.1957
9000.000000	90.872	-31.0530
9120.000000	89.890	-32.3087
9250.000000	88.926	-31.2104
9380.000000	88.110	-29.2682
9500.000000	87.395	-27.3057
9620.000000	86.431	-23.5073
9750.000000	86.147	-17.4617
9880.000000	85.806	-13.1964
10000.000000	85.524	-9.0808
10150.000000	85.289	-3.8851
10300.000000	85.137	1.2423
10440.000000	85.077	6.1359
10600.000000	85.089	11.2606
10750.000000	85.150	16.0383
10900.000000	85.310	20.4135
11060.000000	85.527	24.4890
11200.000000	85.741	27.7952
11380.000000	86.011	31.2713
11500.000000	86.179	33.2639
11720.000000	86.456	36.1009
11800.000000	86.555	37.0004
12060.000000	86.800	39.4642
12200.000000	86.895	40.4242
12410.000000	86.994	41.0870
12500.000000	87.023	41.1402
12650.000000	86.985	40.7998
12800.000000	86.835	40.1105
13150.000000	85.955	37.5749
13200.000000	85.724	37.5227
13400.000000	84.788	37.4982
13600.000000	83.777	39.0954
13800.000000	82.718	42.4326
14000.000000	81.708	46.4929
14300.000000	80.391	53.8458
14500.000000	79.687	59.2247
14750.000000	79.031	61.6714
15000.000000	74.768	59.2546
15250.000000	74.081	90.7897
15500.000000	74.207	104.7761
15750.000000	74.141	116.2621
16000.000000	74.403	127.0975
16250.000000	74.671	136.5743
16500.000000	75.169	141.8264
16750.000000	75.332	144.3959
17000.000000	75.077	145.6688
17250.000000	74.375	146.4905
17500.000000	73.050	148.3568
17750.000000	71.480	152.3720
18000.000000	69.772	158.7532
18250.000000	67.633	166.5365
18500.000000	65.332	-176.5009
18750.000000	63.545	-157.2560
19000.000000	63.429	-140.0943
19250.000000	63.020	-136.3615
19500.000000	61.221	-117.3964
19750.000000	60.466	-99.9449
