* Measurement data measured by REW V5.20.5
* Source: USB Sound Device        , MICROPHONE, R, volume: 0.402
* Format: 256k Log Swept Sine, 1 sweep at -6.0 dBFS with no timing reference
* Dated: 19 Jul, 2023 10:32:25 PM
* REW Settings:
*  C-weighting compensation: Off
*  Target level: 75.0 dB
* Note: 
* Measurement: KZ KRILA UDDD Jul 19
* Smoothing: None
* Frequency Step: 1/48 octave
* Start Frequency: 20.000 Hz
*
* Freq(Hz)	SPL(dB)	Phase(degrees)
20.000000	89.364	14.7554
20.299999	89.364	14.3080
20.600000	89.365	13.8710
20.900000	89.366	13.4399
21.200001	89.367	13.0126
21.400000	89.368	12.7316
21.799999	89.366	12.1843
22.000000	89.365	11.9202
22.400000	89.363	11.4116
22.700001	89.362	11.0430
23.000000	89.360	10.6800
23.299999	89.358	10.3209
23.600000	89.355	9.9680
24.000000	89.349	9.5126
24.299999	89.344	9.1857
24.700001	89.336	8.7672
25.000000	89.332	8.4613
25.400000	89.325	8.0565
25.799999	89.319	7.6519
26.200001	89.311	7.2505
26.500000	89.303	6.9553
26.900000	89.293	6.5734
27.200001	89.286	6.2960
27.600000	89.276	5.9355
28.000000	89.268	5.5784
28.500000	89.258	5.1298
29.000000	89.246	4.6866
29.500000	89.232	4.2684
30.000000	89.219	3.8801
30.400000	89.212	3.5763
30.700001	89.207	3.3438
31.100000	89.200	3.0278
31.500000	89.190	2.7178
32.000000	89.175	2.3604
32.500000	89.163	2.0317
33.000000	89.155	1.6953
33.500000	89.146	1.3317
34.000000	89.132	0.9644
34.500000	89.113	0.6270
35.000000	89.096	0.3224
35.500000	89.082	0.0284
36.000000	89.068	-0.2684
36.500000	89.055	-0.5634
37.000000	89.042	-0.8513
37.500000	89.031	-1.1370
38.200001	89.014	-1.5403
38.700001	89.000	-1.8218
39.500000	88.977	-2.2415
40.000000	88.963	-2.4905
40.599998	88.948	-2.7882
41.200001	88.932	-3.0847
41.799999	88.914	-3.3719
42.500000	88.894	-3.6957
43.099998	88.878	-3.9718
43.700001	88.861	-4.2457
44.400002	88.841	-4.5573
45.000000	88.825	-4.8218
45.500000	88.811	-5.0419
46.200001	88.792	-5.3418
46.799999	88.775	-5.5847
47.500000	88.756	-5.8500
48.200001	88.741	-6.1067
48.700001	88.732	-6.3013
49.400002	88.716	-6.5969
50.000000	88.697	-6.8397
50.799999	88.671	-7.1086
51.500000	88.653	-7.3257
52.200001	88.637	-7.5569
53.000000	88.619	-7.8325
53.799999	88.598	-8.1171
54.500000	88.577	-8.3514
55.200001	88.557	-8.5604
56.000000	88.538	-8.8053
57.000000	88.511	-9.1145
58.000000	88.488	-9.3954
59.000000	88.466	-9.7072
60.000000	88.441	-10.0020
60.799999	88.421	-10.2296
61.500000	88.402	-10.4192
62.200001	88.384	-10.5830
63.000000	88.369	-10.7803
64.000000	88.345	-11.0509
65.000000	88.321	-11.2887
66.000000	88.297	-11.5532
67.000000	88.269	-11.7822
68.000000	88.249	-12.0054
69.000000	88.227	-12.2701
70.000000	88.202	-12.5217
71.000000	88.176	-12.7490
72.000000	88.155	-12.9550
73.000000	88.133	-13.1788
74.000000	88.108	-13.3700
75.000000	88.090	-13.5508
76.199997	88.063	-13.8198
77.500000	88.030	-14.0323
78.800003	88.004	-14.2876
80.000000	87.975	-14.5020
81.199997	87.952	-14.7410
82.500000	87.917	-14.9816
83.800003	87.894	-15.2005
85.000000	87.868	-15.4348
86.199997	87.843	-15.6357
87.500000	87.819	-15.8512
88.500000	87.801	-16.0370
90.000000	87.763	-16.2936
91.199997	87.742	-16.4467
92.500000	87.718	-16.6686
93.800003	87.694	-16.8768
95.000000	87.665	-17.0814
96.199997	87.639	-17.2187
97.500000	87.613	-17.4192
98.800003	87.583	-17.5723
100.000000	87.564	-17.7284
101.500000	87.535	-17.9492
103.000000	87.508	-18.1378
104.400002	87.484	-18.3324
106.000000	87.449	-18.5171
107.500000	87.420	-18.7078
109.000000	87.389	-18.8503
110.599998	87.361	-19.0685
112.000000	87.337	-19.2587
113.800003	87.300	-19.4620
115.000000	87.282	-19.6150
117.199997	87.241	-19.8439
118.000000	87.227	-19.9374
120.599998	87.178	-20.1943
122.000000	87.155	-20.3606
124.099998	87.114	-20.5455
125.000000	87.097	-20.6303
126.500000	87.074	-20.7393
128.000000	87.048	-20.9404
131.500000	86.985	-21.2618
132.000000	86.974	-21.2930
134.000000	86.943	-21.4698
136.000000	86.909	-21.6113
138.000000	86.877	-21.7737
140.000000	86.840	-21.9509
143.000000	86.787	-22.1464
145.000000	86.756	-22.3350
147.500000	86.713	-22.4971
150.000000	86.671	-22.7121
152.500000	86.631	-22.8744
155.000000	86.595	-23.0017
157.500000	86.551	-23.1768
160.000000	86.513	-23.2964
162.500000	86.476	-23.4822
165.000000	86.435	-23.6215
167.500000	86.402	-23.7832
170.000000	86.366	-23.8793
172.500000	86.328	-24.0088
175.000000	86.287	-24.1162
177.500000	86.252	-24.2523
180.000000	86.223	-24.3754
182.500000	86.185	-24.4815
185.000000	86.148	-24.6030
187.500000	86.107	-24.7073
190.000000	86.077	-24.8109
192.500000	86.042	-24.9142
195.000000	86.006	-24.9583
197.500000	85.982	-25.0947
200.000000	85.946	-25.1467
203.000000	85.907	-25.2523
206.000000	85.859	-25.3536
209.000000	85.827	-25.4510
212.000000	85.790	-25.5376
214.000000	85.769	-25.5682
218.000000	85.721	-25.6633
220.000000	85.694	-25.6707
224.000000	85.649	-25.7976
227.000000	85.613	-25.8879
230.000000	85.580	-25.9962
233.000000	85.548	-25.9720
236.000000	85.511	-26.0262
240.000000	85.467	-26.1027
243.000000	85.437	-26.1384
247.000000	85.391	-26.2048
250.000000	85.364	-26.2411
254.000000	85.326	-26.2547
258.000000	85.287	-26.3495
262.000000	85.244	-26.3268
265.000000	85.217	-26.3944
269.000000	85.181	-26.3921
272.000000	85.155	-26.4611
276.000000	85.117	-26.4106
280.000000	85.082	-26.4703
285.000000	85.033	-26.4755
290.000000	84.996	-26.5160
295.000000	84.950	-26.4904
300.000000	84.910	-26.4515
304.000000	84.885	-26.5083
307.000000	84.854	-26.4593
311.000000	84.824	-26.4433
315.000000	84.796	-26.4955
320.000000	84.758	-26.4470
325.000000	84.717	-26.3961
330.000000	84.678	-26.3917
335.000000	84.643	-26.3479
340.000000	84.619	-26.3467
345.000000	84.579	-26.2770
350.000000	84.558	-26.2470
355.000000	84.521	-26.2081
360.000000	84.492	-26.1547
365.000000	84.460	-26.0715
370.000000	84.442	-26.0604
375.000000	84.413	-26.0000
382.000000	84.373	-25.8845
387.000000	84.351	-25.9139
395.000000	84.317	-25.8119
400.000000	84.285	-25.7672
406.000000	84.260	-25.6445
412.000000	84.234	-25.6266
418.000000	84.211	-25.5244
425.000000	84.180	-25.4138
431.000000	84.159	-25.4125
437.000000	84.135	-25.3286
444.000000	84.115	-25.2242
450.000000	84.087	-25.1956
455.000000	84.067	-25.0363
462.000000	84.041	-24.9873
468.000000	84.014	-24.8554
475.000000	83.993	-24.8014
482.000000	83.978	-24.6581
487.000000	83.955	-24.5225
494.000000	83.927	-24.4265
500.000000	83.912	-24.3157
508.000000	83.889	-24.1653
515.000000	83.864	-24.0452
522.000000	83.844	-23.8644
530.000000	83.838	-23.6975
538.000000	83.814	-23.5371
545.000000	83.792	-23.3840
552.000000	83.778	-23.2615
560.000000	83.764	-23.0489
570.000000	83.755	-22.8573
580.000000	83.735	-22.6444
590.000000	83.714	-22.3707
600.000000	83.701	-22.1091
608.000000	83.694	-21.9674
615.000000	83.682	-21.7444
622.000000	83.680	-21.5911
630.000000	83.673	-21.3588
640.000000	83.665	-21.0544
650.000000	83.670	-20.8785
660.000000	83.656	-20.5797
670.000000	83.650	-20.3016
680.000000	83.644	-20.0552
690.000000	83.643	-19.5846
700.000000	83.650	-19.2471
710.000000	83.655	-18.9157
720.000000	83.677	-18.6404
730.000000	83.687	-18.2938
740.000000	83.696	-17.9703
750.000000	83.712	-17.5507
762.000000	83.733	-17.2289
775.000000	83.754	-16.7883
788.000000	83.789	-16.2883
800.000000	83.821	-15.8432
812.000000	83.853	-15.4948
825.000000	83.898	-15.0201
838.000000	83.945	-14.5624
850.000000	83.979	-14.1776
862.000000	84.019	-13.7529
875.000000	84.078	-13.2242
885.000000	84.107	-12.8115
900.000000	84.186	-12.1310
912.000000	84.286	-11.5230
925.000000	84.410	-11.0994
938.000000	84.528	-10.7969
950.000000	84.630	-10.6322
962.000000	84.720	-10.5062
975.000000	84.822	-10.3438
988.000000	84.918	-10.1671
1000.000000	85.006	-10.1608
1015.000000	85.127	-9.9505
1030.000000	85.231	-9.7686
1044.000000	85.351	-9.7320
1060.000000	85.460	-9.6833
1075.000000	85.572	-9.7029
1090.000000	85.693	-9.7689
1106.000000	85.805	-9.8005
1120.000000	85.908	-9.9077
1138.000000	86.021	-10.0347
1150.000000	86.109	-10.1803
1172.000000	86.255	-10.4124
1180.000000	86.313	-10.5343
1206.000000	86.470	-10.8431
1220.000000	86.554	-11.0653
1241.000000	86.678	-11.3513
1250.000000	86.737	-11.4860
1265.000000	86.809	-11.7690
1280.000000	86.886	-12.0060
1315.000000	87.061	-12.5479
1320.000000	87.091	-12.6779
1340.000000	87.179	-12.9973
1360.000000	87.282	-13.2776
1380.000000	87.361	-13.5806
1400.000000	87.448	-13.9271
1430.000000	87.578	-14.3989
1450.000000	87.655	-14.7086
1475.000000	87.759	-15.0182
1500.000000	87.858	-15.3936
1525.000000	87.955	-15.7242
1550.000000	88.052	-16.0813
1575.000000	88.152	-16.4154
1600.000000	88.245	-16.7582
1625.000000	88.340	-17.0997
1650.000000	88.444	-17.4271
1675.000000	88.536	-17.7782
1700.000000	88.636	-18.0887
1725.000000	88.731	-18.4107
1750.000000	88.824	-18.7751
1775.000000	88.924	-19.1227
1800.000000	89.015	-19.4713
1825.000000	89.115	-19.8234
1850.000000	89.218	-20.1741
1875.000000	89.317	-20.5508
1900.000000	89.408	-20.9250
1925.000000	89.508	-21.3076
1950.000000	89.601	-21.6715
1975.000000	89.697	-22.1521
2000.000000	89.818	-22.5042
2030.000000	89.913	-23.0775
2060.000000	90.029	-23.5696
2090.000000	90.148	-24.2004
2120.000000	90.258	-24.7719
2140.000000	90.334	-25.1711
2180.000000	90.483	-25.9899
2200.000000	90.558	-26.4275
2240.000000	90.699	-27.3035
2270.000000	90.807	-27.9772
2300.000000	90.902	-28.6594
2330.000000	91.002	-29.3790
2360.000000	91.104	-30.1400
2400.000000	91.225	-31.1767
2430.000000	91.309	-31.9060
2470.000000	91.417	-33.0149
2500.000000	91.499	-33.7850
2540.000000	91.604	-34.8605
2580.000000	91.701	-35.9774
2620.000000	91.778	-37.1041
2650.000000	91.840	-37.9611
2690.000000	91.918	-39.0678
2720.000000	91.970	-39.9224
2760.000000	92.034	-41.0837
2800.000000	92.091	-42.1431
2850.000000	92.142	-43.5638
2900.000000	92.199	-44.9515
2950.000000	92.242	-46.3113
3000.000000	92.279	-47.6945
3040.000000	92.298	-48.7383
3070.000000	92.311	-49.5278
3110.000000	92.326	-50.6029
3150.000000	92.335	-51.6155
3200.000000	92.345	-52.8600
3250.000000	92.347	-54.0717
3300.000000	92.348	-55.2706
3350.000000	92.332	-56.4946
3400.000000	92.317	-57.6624
3450.000000	92.297	-58.7856
3500.000000	92.277	-59.9448
3550.000000	92.242	-61.0718
3600.000000	92.215	-62.0916
3650.000000	92.179	-63.1864
3700.000000	92.135	-64.2474
3750.000000	92.084	-65.2403
3820.000000	92.005	-66.6647
3870.000000	91.947	-67.6490
3950.000000	91.834	-69.2382
4000.000000	91.768	-70.1529
4060.000000	91.654	-71.2582
4120.000000	91.543	-72.2864
4180.000000	91.424	-73.4095
4250.000000	91.253	-74.4647
4310.000000	91.109	-75.2736
4370.000000	90.952	-76.1368
4440.000000	90.759	-76.9339
4500.000000	90.584	-77.4806
4550.000000	90.439	-77.9328
4620.000000	90.229	-78.3767
4680.000000	90.046	-78.6736
4750.000000	89.839	-78.9686
4820.000000	89.637	-79.2601
4870.000000	89.465	-79.5227
4940.000000	89.224	-79.7066
5000.000000	88.993	-79.8004
5080.000000	88.658	-79.6646
5150.000000	88.352	-79.4181
5220.000000	88.060	-78.8079
5300.000000	87.722	-77.8763
5380.000000	87.394	-76.7089
5450.000000	87.120	-75.6212
5520.000000	86.857	-74.2096
5600.000000	86.571	-72.6261
5700.000000	86.250	-70.0739
5800.000000	85.946	-67.6641
5900.000000	85.667	-64.8654
6000.000000	85.415	-61.9309
6080.000000	85.244	-59.4056
6150.000000	85.102	-57.1293
6220.000000	84.994	-54.7944
6300.000000	84.875	-52.1537
6400.000000	84.764	-48.5442
6500.000000	84.698	-44.9348
6600.000000	84.666	-41.2821
6700.000000	84.643	-37.5187
6800.000000	84.686	-33.6545
6900.000000	84.785	-29.8224
7000.000000	84.904	-25.9449
7100.000000	85.081	-22.1219
7200.000000	85.328	-18.3992
7300.000000	85.609	-14.7788
7400.000000	85.947	-11.3538
7500.000000	86.340	-7.9619
7620.000000	86.894	-4.2567
7750.000000	87.620	-0.7778
7880.000000	88.434	1.7779
8000.000000	89.267	3.0291
8120.000000	90.218	2.7955
8250.000000	91.212	0.4446
8380.000000	92.071	-4.6910
8500.000000	92.551	-11.7586
8620.000000	92.548	-19.7582
8750.000000	91.987	-27.5823
8850.000000	91.315	-31.9300
9000.000000	90.076	-35.2958
9120.000000	89.051	-35.5282
9250.000000	88.089	-33.7273
9380.000000	87.270	-31.3149
9500.000000	86.554	-29.0012
9620.000000	85.600	-24.6090
9750.000000	85.335	-18.3129
9880.000000	84.970	-14.1327
10000.000000	84.720	-9.5741
10150.000000	84.442	-4.1506
10300.000000	84.271	1.2216
10440.000000	84.206	5.9843
10600.000000	84.175	11.6094
10750.000000	84.213	16.5192
10900.000000	84.348	21.1368
11060.000000	84.521	25.6431
11200.000000	84.705	29.1451
11380.000000	84.914	33.0645
11500.000000	85.061	35.4720
11720.000000	85.288	39.1603
11800.000000	85.372	40.3369
12060.000000	85.567	43.8490
12200.000000	85.664	45.4689
12410.000000	85.738	47.4281
12500.000000	85.761	47.9824
12650.000000	85.749	48.7636
12800.000000	85.690	49.1121
13150.000000	85.134	48.8956
13200.000000	85.012	48.8221
13400.000000	84.321	49.1621
13600.000000	83.508	50.8044
13800.000000	82.619	53.3448
14000.000000	81.749	56.6139
14300.000000	80.490	63.7992
14500.000000	79.831	68.1322
14750.000000	79.225	71.1094
15000.000000	75.376	71.0799
15250.000000	74.888	98.8707
15500.000000	75.007	110.7179
15750.000000	74.886	122.2689
16000.000000	75.014	131.5629
16250.000000	75.504	140.9131
16500.000000	75.811	145.4505
16750.000000	75.951	148.1447
17000.000000	75.544	148.5569
17250.000000	74.750	148.3258
17500.000000	73.502	150.1660
17750.000000	71.609	153.5613
18000.000000	69.868	158.2959
18250.000000	67.304	170.4460
18500.000000	64.948	-178.6073
18750.000000	63.420	-153.6636
19000.000000	63.649	-138.4348
19250.000000	62.234	-125.7225
19500.000000	60.700	-113.7623
19750.000000	59.268	-98.1728
