* Measurement data measured by REW V5.20 Beta 60
* Source: Headset (USB-C to 3.5mm Headphone Jack Adapter), MICROPHONE (Master Volume), R, volume: 0.258
* Format: 256k Log Swept Sine, 1 sweep at -12.0 dBFS with no timing reference
* Dated: May 16, 2021 3:19:24 PM
* REW Settings:
*  C-weighting compensation: Off
*  Target level: 75.0 dB
* Note: ; 
* Measurement: 64 Audio Tia Trió R
* Smoothing: None
* Frequency Step: 1/48 octave
* Start Frequency: 20.000 Hz
*
* Freq(Hz)	SPL(dB)	Phase(degrees)
20.000000	92.453865	17.6475
20.299999	92.486923	17.1297
20.600000	92.523460	16.6213
20.900000	92.561188	16.1022
21.200001	92.600494	15.5389
21.400000	92.622971	15.1458
21.799999	92.655746	14.3544
22.000000	92.666618	13.9689
22.400000	92.683487	13.2303
22.700001	92.692284	12.7454
23.000000	92.703041	12.3100
23.299999	92.720123	11.8879
23.600000	92.740509	11.4657
24.000000	92.767792	10.8800
24.299999	92.786148	10.4190
24.700001	92.805115	9.8066
25.000000	92.816170	9.3655
25.400000	92.832596	8.7915
25.799999	92.849464	8.2328
26.200001	92.866264	7.6514
26.500000	92.876541	7.1972
26.900000	92.882423	6.6049
27.200001	92.882889	6.1840
27.600000	92.883072	5.6670
28.000000	92.883957	5.1889
28.500000	92.890656	4.5870
29.000000	92.897125	3.9786
29.500000	92.901939	3.3740
30.000000	92.903839	2.8126
30.400000	92.908714	2.3746
30.700001	92.913498	2.0485
31.100000	92.919983	1.5948
31.500000	92.923996	1.1143
32.000000	92.920326	0.5245
32.500000	92.912415	-0.0299
33.000000	92.904556	-0.5419
33.500000	92.896805	-1.0623
34.000000	92.882126	-1.5877
34.500000	92.864456	-2.0809
35.000000	92.848206	-2.4993
35.500000	92.843857	-2.9081
36.000000	92.844360	-3.3955
36.500000	92.831818	-3.9692
37.000000	92.801132	-4.4720
37.500000	92.775757	-4.8100
38.200001	92.788124	-5.2474
38.700001	92.812965	-5.8198
39.500000	92.784386	-6.9960
40.000000	92.725258	-7.4862
40.599998	92.672264	-7.7441
41.200001	92.667831	-7.9897
41.799999	92.672638	-8.4467
42.500000	92.647125	-9.0209
43.099998	92.623047	-9.3942
43.700001	92.610626	-9.7976
44.400002	92.582878	-10.3637
45.000000	92.544456	-10.7693
45.500000	92.520805	-11.0377
46.200001	92.501862	-11.4582
46.799999	92.480354	-11.9037
47.500000	92.445702	-12.3970
48.200001	92.411659	-12.8425
48.700001	92.387787	-13.1694
49.400002	92.351547	-13.5860
50.000000	92.321655	-13.8899
50.799999	92.296516	-14.3372
51.500000	92.275696	-14.7755
52.200001	92.240273	-15.2696
53.000000	92.176758	-15.7216
53.799999	92.134102	-15.9662
54.500000	92.122353	-16.3458
55.200001	92.080620	-16.9054
56.000000	91.998550	-17.2469
57.000000	91.968491	-17.4187
58.000000	91.957756	-18.0370
59.000000	91.908730	-18.6696
60.000000	91.844971	-19.2569
60.799999	91.774315	-19.5389
61.500000	91.737457	-19.6573
62.200001	91.716324	-19.8862
63.000000	91.677711	-20.2107
64.000000	91.631699	-20.5241
65.000000	91.600082	-20.9488
66.000000	91.545959	-21.4731
67.000000	91.477631	-21.8719
68.000000	91.426010	-22.1960
69.000000	91.379166	-22.6075
70.000000	91.318832	-22.9806
71.000000	91.264992	-23.2925
72.000000	91.219467	-23.6100
73.000000	91.172005	-23.9647
74.000000	91.126709	-24.2636
75.000000	91.086090	-24.6346
76.199997	91.014351	-24.9941
77.500000	90.950699	-25.2577
78.800003	90.891930	-25.5494
80.000000	90.824036	-25.8857
81.199997	90.765228	-26.1241
82.500000	90.690948	-26.6518
83.800003	90.594154	-26.8469
85.000000	90.558739	-27.0863
86.199997	90.497162	-27.4588
87.500000	90.430962	-27.7038
88.500000	90.392296	-27.8669
90.000000	90.314720	-28.2867
91.199997	90.262886	-28.3592
92.500000	90.195961	-28.7772
93.800003	90.146767	-28.8497
95.000000	90.070038	-29.3464
96.199997	89.998093	-29.2489
97.500000	89.948280	-29.6611
98.800003	89.873169	-29.7398
100.000000	89.833160	-30.1369
101.500000	89.740776	-30.4105
103.000000	89.661293	-30.6486
104.400002	89.636208	-30.5509
106.000000	89.563721	-31.0703
107.500000	89.501907	-30.9237
109.000000	89.422501	-31.2487
110.599998	89.354858	-31.1960
112.000000	89.298431	-31.6609
113.800003	89.207817	-31.7270
115.000000	89.167969	-31.9820
117.199997	89.060623	-32.2465
118.000000	89.024986	-32.2525
120.599998	88.949333	-32.3080
122.000000	88.873573	-32.6817
124.099998	88.788910	-32.7398
125.000000	88.754494	-32.8091
126.500000	88.690674	-33.0417
128.000000	88.610123	-33.0090
131.500000	88.493866	-33.2600
132.000000	88.475777	-33.3204
134.000000	88.388954	-33.3976
136.000000	88.311295	-33.4526
138.000000	88.239334	-33.5274
140.000000	88.163849	-33.7114
143.000000	88.046005	-33.7264
145.000000	87.971474	-33.8314
147.500000	87.884300	-34.0033
150.000000	87.814713	-34.0217
152.500000	87.738518	-34.0539
155.000000	87.649551	-34.1011
157.500000	87.593216	-34.0783
160.000000	87.506149	-34.0231
162.500000	87.447006	-34.2551
165.000000	87.365791	-34.1006
167.500000	87.309540	-34.1982
170.000000	87.232651	-34.2083
172.500000	87.163521	-34.1784
175.000000	87.083107	-34.2619
177.500000	87.000443	-34.1993
180.000000	86.919510	-34.1276
182.500000	86.846497	-34.1618
185.000000	86.764137	-34.1241
187.500000	86.705612	-34.1250
190.000000	86.636757	-33.9687
192.500000	86.578171	-33.8902
195.000000	86.496277	-33.8618
197.500000	86.432144	-33.7857
200.000000	86.365524	-33.7935
203.000000	86.291527	-33.7040
206.000000	86.221375	-33.7010
209.000000	86.148849	-33.5824
212.000000	86.094948	-33.3574
214.000000	86.036697	-33.2240
218.000000	85.960419	-33.2558
220.000000	85.927902	-33.0870
224.000000	85.855652	-32.9872
227.000000	85.813080	-32.9647
230.000000	85.768784	-32.9119
233.000000	85.726479	-32.7903
236.000000	85.667847	-32.6285
240.000000	85.607529	-32.5220
243.000000	85.551346	-32.4556
247.000000	85.483643	-32.2832
250.000000	85.456909	-32.1447
254.000000	85.394447	-31.9139
258.000000	85.327454	-31.8236
262.000000	85.277313	-31.7107
265.000000	85.229095	-31.5086
269.000000	85.177902	-31.3538
272.000000	85.137917	-31.2847
276.000000	85.099030	-31.0935
280.000000	85.046234	-30.9210
285.000000	85.002144	-30.6904
290.000000	84.942345	-30.5323
295.000000	84.895950	-30.2806
300.000000	84.864563	-30.1281
304.000000	84.829559	-29.9470
307.000000	84.794128	-29.8507
311.000000	84.765625	-29.6923
315.000000	84.739639	-29.5620
320.000000	84.698326	-29.3740
325.000000	84.667183	-29.2214
330.000000	84.636307	-29.0679
335.000000	84.613815	-28.8732
340.000000	84.591942	-28.7285
345.000000	84.569260	-28.5524
350.000000	84.547470	-28.4520
355.000000	84.523788	-28.2542
360.000000	84.502083	-28.1820
365.000000	84.488235	-27.9483
370.000000	84.473526	-27.8993
375.000000	84.472572	-27.8336
382.000000	84.450729	-27.7237
387.000000	84.451050	-27.5944
395.000000	84.444260	-27.5172
400.000000	84.446854	-27.4328
406.000000	84.437027	-27.3538
412.000000	84.448959	-27.3412
418.000000	84.445091	-27.2973
425.000000	84.449707	-27.3446
431.000000	84.446114	-27.4477
437.000000	84.473961	-27.3929
444.000000	84.491272	-27.4046
450.000000	84.516563	-27.4395
455.000000	84.499847	-27.5484
462.000000	84.526886	-27.7692
468.000000	84.521263	-28.0228
475.000000	84.555267	-28.2639
482.000000	84.580330	-28.6666
487.000000	84.539291	-28.7197
494.000000	84.566978	-28.7974
500.000000	84.563103	-29.2992
508.000000	84.638840	-29.6682
515.000000	84.627365	-29.8726
522.000000	84.606003	-30.2350
530.000000	84.614769	-30.7015
538.000000	84.633324	-31.1525
545.000000	84.626480	-31.5739
552.000000	84.614380	-31.8374
560.000000	84.600525	-32.5049
570.000000	84.611816	-33.1611
580.000000	84.559807	-33.7460
590.000000	84.561028	-34.4744
600.000000	84.519821	-35.1589
608.000000	84.496925	-35.8736
615.000000	84.459244	-36.4615
622.000000	84.434464	-37.0857
630.000000	84.382866	-37.7178
640.000000	84.331970	-38.6463
650.000000	84.256119	-39.5247
660.000000	84.182320	-40.4946
670.000000	84.098816	-41.5936
680.000000	84.005371	-42.9346
690.000000	83.840584	-44.7876
700.000000	83.505013	-46.6232
710.000000	82.941330	-47.2614
720.000000	82.520370	-45.5875
730.000000	82.371773	-43.9629
740.000000	82.298096	-43.1982
750.000000	82.237106	-42.8077
762.000000	82.114647	-42.5672
775.000000	81.964645	-42.2461
788.000000	81.807793	-42.1681
800.000000	81.626266	-41.9026
812.000000	81.443771	-41.4398
825.000000	81.255661	-40.9386
838.000000	81.087669	-40.3053
850.000000	80.947334	-39.5975
862.000000	80.795387	-38.8525
875.000000	80.635025	-38.0928
885.000000	80.522438	-37.5236
900.000000	80.355972	-36.3866
912.000000	80.244156	-35.2811
925.000000	80.123940	-34.0512
938.000000	80.025406	-33.0370
950.000000	79.935776	-32.2401
962.000000	79.872307	-30.8971
975.000000	79.812775	-29.5592
988.000000	79.719849	-28.4005
1000.000000	79.766609	-26.9808
1015.000000	79.651787	-25.9117
1030.000000	79.607941	-24.5240
1044.000000	79.592529	-23.1523
1060.000000	79.593033	-21.6702
1075.000000	79.610016	-20.3916
1090.000000	79.648956	-19.1063
1106.000000	79.707481	-17.7387
1120.000000	79.759735	-16.5907
1138.000000	79.829254	-15.2552
1150.000000	79.876900	-14.4887
1172.000000	79.982277	-12.9242
1180.000000	80.030640	-12.4153
1206.000000	80.168015	-10.8273
1220.000000	80.255241	-10.0162
1241.000000	80.368729	-8.8103
1250.000000	80.435509	-8.3146
1265.000000	80.514389	-7.5477
1280.000000	80.609863	-6.7657
1315.000000	80.801125	-4.9842
1320.000000	80.823547	-4.7326
1340.000000	80.939163	-3.7250
1360.000000	81.064964	-2.7366
1380.000000	81.181656	-1.6787
1400.000000	81.301620	-0.7153
1430.000000	81.474487	0.8991
1450.000000	81.609322	1.9120
1475.000000	81.787941	3.2711
1500.000000	81.956940	4.6275
1525.000000	82.147530	6.0541
1550.000000	82.355820	7.3914
1575.000000	82.579117	8.7605
1600.000000	82.823013	10.1044
1625.000000	83.079437	11.3513
1650.000000	83.352211	12.5926
1675.000000	83.635857	13.7033
1700.000000	83.934532	14.7471
1725.000000	84.253357	15.7206
1750.000000	84.570572	16.5585
1775.000000	84.900383	17.2819
1800.000000	85.233017	17.8830
1825.000000	85.570892	18.3593
1850.000000	85.906342	18.7086
1875.000000	86.251060	18.9307
1900.000000	86.583130	19.0133
1925.000000	86.921249	19.0191
1950.000000	87.244637	18.8224
1975.000000	87.548317	18.4926
2000.000000	87.802757	17.8684
2030.000000	88.228951	17.6175
2060.000000	88.584778	16.9298
2090.000000	88.909401	16.0932
2120.000000	89.224312	15.0907
2140.000000	89.421173	14.3762
2180.000000	89.770645	12.8645
2200.000000	89.939758	12.0399
2240.000000	90.232956	10.1278
2270.000000	90.411835	8.4351
2300.000000	90.564125	6.5337
2330.000000	90.711929	4.6226
2360.000000	90.815613	2.7306
2400.000000	90.933685	0.5059
2430.000000	91.001450	-0.9406
2470.000000	91.053680	-2.5771
2500.000000	91.075714	-3.7957
2540.000000	91.070244	-5.2327
2580.000000	91.041855	-6.5745
2620.000000	90.999451	-7.7976
2650.000000	90.965309	-8.6458
2690.000000	90.901817	-9.6415
2720.000000	90.849274	-10.3258
2760.000000	90.758179	-11.1201
2800.000000	90.664658	-11.8681
2850.000000	90.537643	-12.5671
2900.000000	90.411705	-13.2087
2950.000000	90.287773	-13.7301
3000.000000	90.161255	-13.8114
3040.000000	90.064293	-14.4155
3070.000000	89.985947	-14.6222
3110.000000	89.887306	-14.8816
3150.000000	89.784180	-15.0612
3200.000000	89.664154	-15.2768
3250.000000	89.538589	-15.4616
3300.000000	89.408356	-15.6281
3350.000000	89.273560	-15.8008
3400.000000	89.131111	-15.9273
3450.000000	88.988976	-16.1427
3500.000000	88.835373	-16.2188
3550.000000	88.652054	-16.1938
3600.000000	88.450134	-15.9751
3650.000000	88.231323	-15.4452
3700.000000	88.005058	-14.6642
3750.000000	87.796326	-13.3772
3820.000000	87.564896	-11.0820
3870.000000	87.456757	-9.0876
3950.000000	87.431541	-5.7218
4000.000000	87.490204	-3.9519
4060.000000	87.715508	-1.7601
4120.000000	87.954056	-0.5521
4180.000000	88.188660	0.0496
4250.000000	88.430649	0.3621
4310.000000	88.591423	0.3403
4370.000000	88.734512	0.2207
4440.000000	88.886581	0.0423
4500.000000	89.016342	-0.1746
4550.000000	89.125305	-0.3501
4620.000000	89.287224	-0.7726
4680.000000	89.442490	-1.2945
4750.000000	89.643303	-2.1813
4820.000000	89.856209	-3.4730
4870.000000	90.012238	-4.7291
4940.000000	90.224380	-7.1470
5000.000000	90.374222	-9.9248
5080.000000	90.460709	-14.4010
5150.000000	90.328026	-19.3569
5220.000000	89.911461	-24.5947
5300.000000	89.004822	-29.5795
5380.000000	87.779251	-31.6319
5450.000000	86.678001	-30.2528
5520.000000	85.778755	-26.2467
5600.000000	85.194885	-20.2904
5700.000000	85.059746	-13.4527
5800.000000	85.272896	-8.8288
5900.000000	85.580727	-6.1251
6000.000000	85.856552	-4.7708
6080.000000	86.044266	-4.2539
6150.000000	86.171371	-4.1525
6220.000000	86.274147	-4.0763
6300.000000	86.364037	-4.0390
6400.000000	86.442474	-3.9969
6500.000000	86.520363	-3.7941
6600.000000	86.593857	-3.4777
6700.000000	86.690826	-3.1030
6800.000000	86.835327	-2.4963
6900.000000	87.041382	-1.9166
7000.000000	87.337112	-1.4248
7100.000000	87.667099	-1.0535
7200.000000	88.059921	-0.8681
7300.000000	88.484451	-0.7342
7400.000000	88.994591	-0.6510
7500.000000	89.681641	-1.0585
7620.000000	90.647781	-3.4793
7750.000000	91.653221	-8.9292
7880.000000	92.383942	-17.5166
8000.000000	92.586090	-27.4697
8120.000000	92.211205	-37.4514
8250.000000	91.261604	-46.0566
8380.000000	90.056328	-51.4686
8500.000000	88.909836	-53.9385
8620.000000	87.821121	-54.6226
8750.000000	86.718689	-53.7951
8850.000000	85.938019	-52.5143
9000.000000	84.840477	-49.4755
9120.000000	83.977295	-44.7237
9250.000000	83.592308	-40.5315
9380.000000	83.117310	-36.4218
9500.000000	82.759377	-32.3726
9620.000000	82.484772	-28.1433
9750.000000	82.282776	-23.3775
9880.000000	82.177536	-18.6716
10000.000000	82.153954	-14.5535
10150.000000	82.246567	-9.4296
10300.000000	82.469482	-4.6734
10440.000000	82.731400	-0.7158
10600.000000	83.153008	3.1554
10750.000000	83.633858	6.0946
10900.000000	84.189102	7.9483
11060.000000	84.793518	8.5185
11200.000000	85.292694	7.7065
11380.000000	85.764854	4.5732
11500.000000	85.882141	1.7000
11720.000000	85.622314	-4.2117
11800.000000	85.356674	-6.1283
12060.000000	84.095482	-9.8844
12200.000000	83.285904	-9.8113
12410.000000	82.204651	-7.5476
12500.000000	81.802666	-5.8702
12650.000000	81.115662	-3.0245
12800.000000	80.502182	0.5923
13150.000000	79.296211	10.9565
13200.000000	79.071960	12.6844
13400.000000	78.623734	19.8462
13600.000000	78.223877	27.4933
13800.000000	77.913826	35.4396
14000.000000	77.794014	43.7335
14300.000000	77.728600	56.5688
14500.000000	77.840874	65.3312
14750.000000	78.244576	77.1044
15000.000000	79.009659	89.9215
15250.000000	80.659882	101.4352
15500.000000	82.944603	106.6652
15750.000000	84.715233	105.4238
16000.000000	86.149849	104.6040
16250.000000	88.036743	102.1016
16500.000000	90.124641	92.2832
16750.000000	91.144836	73.6118
17000.000000	90.348450	56.6823
17250.000000	89.110451	47.9861
17500.000000	88.332626	43.2488
17750.000000	88.236130	35.3533
18000.000000	88.092407	17.1120
18250.000000	86.370636	-7.2112
18500.000000	82.972046	-23.4184
18750.000000	79.407059	-26.5391
19000.000000	76.414307	-21.8679
19250.000000	74.062698	-13.1566
19500.000000	72.125671	-2.1232
19750.000000	70.779358	9.0399
