* Measurement data measured by REW V5.20 Beta 47
* Source: Headset (USB-C to 3.5mm Headphone Jack Adapter), MICROPHONE (Master Volume), L, volume: 0.000
* Format: 256k Log Swept Sine, 1 sweep at -3.0 dBFS with no timing reference
* Dated: Jul 19, 2020 4:16:44 AM
* REW Settings:
*  C-weighting compensation: Off
*  Target level: 75.0 dB
* Note: ; 
* Measurement: 64 Audio Fourte Noir L
* Smoothing: None
* Frequency Step: 1/48 octave
* Start Frequency: 20.000 Hz
*
* Freq(Hz)	SPL(dB)	Phase(degrees)
20.0000	94.5357	1.95
20.3000	94.5394	1.57
20.6000	94.5426	1.21
20.9000	94.5442	0.85
21.2000	94.5477	0.49
21.4000	94.5489	0.24
21.8000	94.5483	-0.23
22.0000	94.5478	-0.47
22.4000	94.5505	-0.96
22.7000	94.5510	-1.34
23.0000	94.5492	-1.71
23.3000	94.5460	-2.10
23.6000	94.5387	-2.47
24.0000	94.5228	-2.92
24.3000	94.5105	-3.22
24.7000	94.4968	-3.58
25.0000	94.4896	-3.83
25.4000	94.4855	-4.18
25.8000	94.4803	-4.52
26.2000	94.4742	-4.85
26.5000	94.4710	-5.10
26.9000	94.4681	-5.40
27.2000	94.4678	-5.65
27.6000	94.4665	-6.01
28.0000	94.4547	-6.40
28.5000	94.4265	-6.84
29.0000	94.3991	-7.15
29.5000	94.3925	-7.44
30.0000	94.3946	-7.85
30.4000	94.3862	-8.29
30.7000	94.3676	-8.61
31.1000	94.3336	-8.97
31.5000	94.3045	-9.22
32.0000	94.2912	-9.50
32.5000	94.2914	-9.93
33.0000	94.2779	-10.48
33.5000	94.2374	-10.98
34.0000	94.1919	-11.30
34.5000	94.1706	-11.54
35.0000	94.1635	-11.84
35.5000	94.1482	-12.22
36.0000	94.1163	-12.54
36.5000	94.0831	-12.74
37.0000	94.0653	-12.87
37.5000	94.0620	-13.06
38.2000	94.0506	-13.45
38.7000	94.0291	-13.75
39.5000	93.9896	-14.15
40.0000	93.9656	-14.38
40.6000	93.9367	-14.66
41.2000	93.9112	-14.94
41.8000	93.8899	-15.25
42.5000	93.8616	-15.64
43.1000	93.8353	-15.97
43.7000	93.8120	-16.29
44.4000	93.7841	-16.68
45.0000	93.7537	-17.02
45.5000	93.7252	-17.26
46.2000	93.6846	-17.52
46.8000	93.6542	-17.71
47.5000	93.6216	-17.94
48.2000	93.5856	-18.13
48.7000	93.5659	-18.24
49.4000	93.5516	-18.49
50.0000	93.5259	-18.86
50.8000	93.4496	-19.33
51.5000	93.3851	-19.39
52.2000	93.3650	-19.45
53.0000	93.3531	-19.77
53.8000	93.3254	-20.15
54.5000	93.2972	-20.52
55.2000	93.2474	-20.91
56.0000	93.1799	-21.10
57.0000	93.1432	-21.28
58.0000	93.0912	-21.67
59.0000	93.0279	-21.90
60.0000	92.9849	-22.18
60.8000	92.9381	-22.46
61.5000	92.8905	-22.68
62.2000	92.8439	-22.82
63.0000	92.8053	-22.93
64.0000	92.7710	-23.17
65.0000	92.7252	-23.50
66.0000	92.6581	-23.74
67.0000	92.6115	-23.80
68.0000	92.5811	-24.10
69.0000	92.5136	-24.35
70.0000	92.4707	-24.48
71.0000	92.4178	-24.83
72.0000	92.3454	-24.99
73.0000	92.2905	-25.11
74.0000	92.2465	-25.15
75.0000	92.2343	-25.36
76.2000	92.1794	-25.73
77.5000	92.1253	-26.06
78.8000	92.0442	-26.21
80.0000	91.9854	-26.31
81.2000	91.9531	-26.16
82.5000	91.9289	-26.63
83.8000	91.8368	-26.74
85.0000	91.7851	-26.88
86.2000	91.7158	-27.06
87.5000	91.6532	-27.10
88.5000	91.6155	-27.43
90.0000	91.5139	-27.29
91.2000	91.5213	-27.72
92.5000	91.4185	-27.90
93.8000	91.3711	-27.99
95.0000	91.3488	-27.90
96.2000	91.3192	-28.39
97.5000	91.2207	-28.43
98.8000	91.1507	-28.35
100.0000	91.1448	-28.25
101.5000	91.0686	-28.71
103.0000	91.0182	-28.68
104.4000	90.9478	-28.89
106.0000	90.9097	-28.93
107.5000	90.8564	-29.04
109.0000	90.7994	-29.18
110.6000	90.7273	-29.23
112.0000	90.6705	-29.12
113.8000	90.6347	-29.18
115.0000	90.6178	-29.34
117.2000	90.5231	-29.47
118.0000	90.5020	-29.51
120.6000	90.3896	-29.45
122.0000	90.3341	-29.49
124.1000	90.3320	-29.76
125.0000	90.2407	-29.86
126.5000	90.2349	-30.02
128.0000	90.0167	-29.46
131.5000	90.0183	-30.18
132.0000	89.9870	-30.09
134.0000	89.9813	-29.68
136.0000	89.9442	-29.90
138.0000	89.8777	-29.74
140.0000	89.8075	-29.66
143.0000	89.7119	-29.86
145.0000	89.6572	-30.06
147.5000	89.6268	-29.76
150.0000	89.5586	-29.83
152.5000	89.4922	-29.75
155.0000	89.4329	-29.86
157.5000	89.3910	-29.71
160.0000	89.3582	-29.64
162.5000	89.2921	-29.73
165.0000	89.2497	-29.70
167.5000	89.2179	-29.73
170.0000	89.1755	-29.68
172.5000	89.1234	-29.56
175.0000	89.0623	-29.56
177.5000	89.0045	-29.58
180.0000	88.9599	-29.49
182.5000	88.9051	-29.45
185.0000	88.8577	-29.36
187.5000	88.8091	-29.36
190.0000	88.7649	-29.26
192.5000	88.7226	-29.14
195.0000	88.6619	-29.10
197.5000	88.6193	-29.15
200.0000	88.5506	-29.18
203.0000	88.5340	-29.04
206.0000	88.4923	-28.94
209.0000	88.4433	-28.92
212.0000	88.4063	-28.83
214.0000	88.3790	-28.79
218.0000	88.3270	-28.69
220.0000	88.3089	-28.69
224.0000	88.2808	-28.55
227.0000	88.2688	-28.51
230.0000	88.2185	-28.38
233.0000	88.1987	-28.39
236.0000	88.1850	-28.49
240.0000	88.1397	-28.18
243.0000	88.0744	-28.23
247.0000	88.0783	-28.18
250.0000	88.0824	-28.34
254.0000	88.0145	-28.24
258.0000	87.9898	-28.01
262.0000	87.9229	-27.92
265.0000	87.9198	-28.04
269.0000	87.9084	-27.72
272.0000	87.8757	-27.76
276.0000	87.8856	-27.68
280.0000	87.8567	-27.59
285.0000	87.8235	-27.58
290.0000	87.8011	-27.54
295.0000	87.7771	-27.46
300.0000	87.7785	-27.47
304.0000	87.7463	-27.36
307.0000	87.7313	-27.34
311.0000	87.7117	-27.29
315.0000	87.6941	-27.19
320.0000	87.6805	-27.23
325.0000	87.6616	-27.24
330.0000	87.6274	-27.09
335.0000	87.6039	-27.00
340.0000	87.5811	-26.86
345.0000	87.5620	-26.55
350.0000	87.5470	-25.98
355.0000	87.6397	-25.21
360.0000	87.8178	-25.41
365.0000	87.8769	-26.51
370.0000	87.7979	-26.46
375.0000	87.8191	-27.10
382.0000	87.7845	-27.25
387.0000	87.7800	-27.40
395.0000	87.7885	-27.49
400.0000	87.7786	-27.61
406.0000	87.7943	-27.69
412.0000	87.8086	-27.74
418.0000	87.8301	-27.77
425.0000	87.8461	-27.91
431.0000	87.8649	-28.04
437.0000	87.8918	-28.17
444.0000	87.9197	-28.24
450.0000	87.9657	-28.40
455.0000	87.9912	-28.52
462.0000	88.0291	-28.78
468.0000	88.0719	-29.01
475.0000	88.1402	-29.21
482.0000	88.2071	-29.43
487.0000	88.0847	-29.12
494.0000	88.2845	-29.92
500.0000	88.2922	-30.40
508.0000	88.4297	-31.02
515.0000	88.4599	-31.54
522.0000	88.5139	-32.09
530.0000	88.5715	-32.76
538.0000	88.6222	-33.41
545.0000	88.6750	-33.90
552.0000	88.7166	-34.53
560.0000	88.7788	-35.35
570.0000	88.8375	-36.32
580.0000	88.8965	-37.37
590.0000	88.9438	-38.56
600.0000	88.9889	-39.70
608.0000	88.9742	-40.26
615.0000	89.1084	-41.93
622.0000	89.0958	-42.45
630.0000	89.0808	-43.49
640.0000	89.1241	-45.10
650.0000	89.1149	-46.70
660.0000	89.0948	-48.19
670.0000	89.0640	-49.71
680.0000	89.0263	-51.29
690.0000	88.9611	-52.90
700.0000	88.8763	-54.43
710.0000	88.7767	-56.00
720.0000	88.6628	-57.52
730.0000	88.5299	-59.10
740.0000	88.3828	-60.52
750.0000	88.2139	-61.89
762.0000	87.9989	-63.42
775.0000	87.7467	-64.95
788.0000	87.4686	-66.43
800.0000	87.1904	-67.58
812.0000	86.9237	-68.57
825.0000	86.6111	-69.55
838.0000	86.2796	-70.27
850.0000	85.9905	-70.71
862.0000	85.6968	-70.96
875.0000	85.3611	-71.29
885.0000	85.1054	-71.31
900.0000	84.7605	-71.16
912.0000	84.4849	-70.97
925.0000	84.1985	-70.61
938.0000	83.9195	-70.11
950.0000	83.6696	-69.55
962.0000	83.4389	-68.95
975.0000	83.1957	-68.15
988.0000	82.9839	-67.21
1000.0000	82.8605	-66.18
1015.0000	82.5374	-65.25
1030.0000	82.3042	-64.01
1044.0000	82.1229	-62.86
1060.0000	81.9248	-61.41
1075.0000	81.7639	-60.06
1090.0000	81.6325	-58.66
1106.0000	81.5066	-57.12
1120.0000	81.4061	-55.77
1138.0000	81.3108	-54.00
1150.0000	81.2584	-52.85
1172.0000	81.1740	-50.67
1180.0000	81.1598	-49.94
1206.0000	81.1189	-47.40
1220.0000	81.1099	-46.09
1241.0000	81.1469	-44.07
1250.0000	81.1565	-43.26
1265.0000	81.1865	-41.92
1280.0000	81.2320	-40.53
1315.0000	81.3853	-37.48
1320.0000	81.4128	-37.04
1340.0000	81.5249	-35.41
1360.0000	81.6428	-33.86
1380.0000	81.8000	-32.32
1400.0000	81.9478	-30.92
1430.0000	82.1872	-28.86
1450.0000	82.3781	-27.52
1475.0000	82.6232	-26.00
1500.0000	82.8865	-24.67
1525.0000	83.1489	-23.39
1550.0000	83.4395	-22.41
1575.0000	83.7259	-21.48
1600.0000	84.0136	-20.68
1625.0000	84.3103	-19.97
1650.0000	84.6069	-19.41
1675.0000	84.9004	-18.95
1700.0000	85.1956	-18.58
1725.0000	85.4941	-18.37
1750.0000	85.7860	-18.26
1775.0000	86.0715	-18.28
1800.0000	86.3559	-18.42
1825.0000	86.6241	-18.69
1850.0000	86.8837	-19.03
1875.0000	87.1315	-19.45
1900.0000	87.3621	-20.02
1925.0000	87.5731	-20.49
1950.0000	87.7720	-20.99
1975.0000	87.9595	-21.54
2000.0000	88.0960	-22.37
2030.0000	88.4109	-22.92
2060.0000	88.6444	-23.83
2090.0000	88.8375	-24.91
2120.0000	89.0062	-26.04
2140.0000	89.1031	-26.85
2180.0000	89.2584	-28.38
2200.0000	89.3248	-29.16
2240.0000	89.4115	-30.80
2270.0000	89.4447	-32.07
2300.0000	89.4796	-33.48
2330.0000	89.5119	-34.86
2360.0000	89.5178	-36.20
2400.0000	89.5262	-37.67
2430.0000	89.5261	-38.46
2470.0000	89.5067	-39.27
2500.0000	89.4810	-39.81
2540.0000	89.4373	-40.47
2580.0000	89.3954	-40.96
2620.0000	89.3522	-41.40
2650.0000	89.3192	-41.61
2690.0000	89.2837	-41.91
2720.0000	89.2564	-42.19
2760.0000	89.2167	-42.38
2800.0000	89.1638	-42.63
2850.0000	89.1259	-42.98
2900.0000	89.0592	-43.21
2950.0000	89.0084	-43.62
3000.0000	88.8971	-43.83
3040.0000	88.7655	-44.62
3070.0000	88.6393	-44.50
3110.0000	88.5322	-44.24
3150.0000	88.4135	-43.89
3200.0000	88.3143	-43.14
3250.0000	88.2670	-42.36
3300.0000	88.1712	-41.79
3350.0000	88.1598	-41.46
3400.0000	88.0732	-41.19
3450.0000	88.0155	-40.65
3500.0000	88.0168	-39.93
3550.0000	87.9287	-39.13
3600.0000	87.9325	-38.78
3650.0000	87.8404	-38.16
3700.0000	87.7992	-37.19
3750.0000	87.8281	-36.40
3820.0000	87.9229	-35.42
3870.0000	87.8770	-34.56
3950.0000	87.8567	-34.52
4000.0000	87.7549	-34.46
4060.0000	87.6448	-33.37
4120.0000	87.4583	-32.13
4180.0000	87.2258	-30.03
4250.0000	87.2108	-26.97
4310.0000	87.4047	-25.09
4370.0000	87.4656	-24.00
4440.0000	87.4555	-22.14
4500.0000	87.4905	-20.20
4550.0000	87.6404	-17.10
4620.0000	87.8881	-14.72
4680.0000	88.2470	-12.18
4750.0000	88.7397	-10.53
4820.0000	89.1672	-9.64
4870.0000	89.5533	-9.92
4940.0000	90.2079	-9.42
5000.0000	90.6539	-11.51
5080.0000	91.2109	-14.27
5150.0000	91.4412	-16.99
5220.0000	91.3069	-19.43
5300.0000	91.2999	-21.68
5380.0000	91.1139	-23.13
5450.0000	90.9456	-24.19
5520.0000	90.6793	-25.49
5600.0000	90.5905	-25.52
5700.0000	90.3933	-26.55
5800.0000	90.1221	-26.40
5900.0000	89.6872	-26.62
6000.0000	89.4365	-25.32
6080.0000	89.2404	-25.07
6150.0000	89.2135	-24.22
6220.0000	89.1689	-24.49
6300.0000	88.7515	-23.98
6400.0000	88.6546	-22.62
6500.0000	88.7458	-20.27
6600.0000	88.4375	-19.49
6700.0000	88.4127	-17.84
6800.0000	88.6331	-15.11
6900.0000	88.6298	-10.86
7000.0000	89.1230	-10.72
7100.0000	89.4490	-8.58
7200.0000	89.7033	-6.60
7300.0000	90.3205	-8.74
7400.0000	90.7313	-7.79
7500.0000	91.4602	-8.54
7620.0000	92.0451	-13.67
7750.0000	93.0016	-24.06
7880.0000	92.6778	-32.46
8000.0000	91.9282	-42.55
8120.0000	90.8799	-51.22
8250.0000	88.9416	-54.65
8380.0000	87.2810	-55.86
8500.0000	85.9205	-56.72
8620.0000	85.0196	-51.59
8750.0000	84.0523	-48.55
8850.0000	82.5461	-47.55
9000.0000	81.0954	-39.14
9120.0000	80.9490	-34.63
9250.0000	80.2159	-28.61
9380.0000	78.9151	-18.10
9500.0000	78.1159	-14.70
9620.0000	78.6123	-8.83
9750.0000	78.6567	-2.42
9880.0000	78.0955	6.45
10000.0000	77.3306	11.12
10150.0000	78.0291	10.40
10300.0000	77.0678	13.68
10440.0000	77.1237	26.17
10600.0000	78.0809	30.46
10750.0000	77.4417	31.16
10900.0000	77.0505	39.46
11060.0000	77.7036	52.07
11200.0000	78.3560	56.34
11380.0000	78.3472	53.42
11500.0000	79.9431	56.88
11720.0000	81.0231	68.50
11800.0000	80.1194	60.71
12060.0000	82.5367	65.89
12200.0000	82.2997	74.81
12410.0000	83.8446	71.76
12500.0000	85.8404	73.31
12650.0000	87.7002	59.27
12800.0000	88.3961	48.89
13150.0000	88.6854	24.35
13200.0000	86.5992	33.74
13400.0000	86.1977	10.27
13600.0000	84.9250	22.50
13800.0000	84.5460	20.75
14000.0000	82.2472	5.65
14300.0000	84.6013	7.93
14500.0000	83.8150	9.40
14750.0000	80.3442	9.65
15000.0000	80.1951	15.56
15250.0000	81.5449	-10.70
15500.0000	79.7487	2.52
15750.0000	78.4352	-23.17
16000.0000	80.9969	9.24
16250.0000	83.7678	10.41
16500.0000	82.7310	12.74
16750.0000	88.0020	-20.35
17000.0000	89.5456	-41.05
17250.0000	84.4730	-51.51
17500.0000	88.6657	-83.15
17750.0000	88.8800	-109.87
18000.0000	82.2390	-138.17
18250.0000	84.1335	171.81
18500.0000	79.7378	138.93
18750.0000	73.3746	153.24
19000.0000	69.5296	96.55
19250.0000	59.8581	101.36
19500.0000	61.3915	82.70
19750.0000	65.2611	101.94
