* Measurement data measured by REW V5.20 Beta 60
* Source: Headset (USB-C to 3.5mm Headphone Jack Adapter), MICROPHONE (Master Volume), R, volume: 0.250
* Format: 256k Log Swept Sine, 1 sweep at -12.0 dBFS with no timing reference
* Dated: Apr 18, 2021 5:23:34 PM
* REW Settings:
*  C-weighting compensation: Off
*  Target level: 75.0 dB
* Note: ; 
* Measurement: 64 Audio U18s R
* Smoothing: None
* Frequency Step: 1/48 octave
* Start Frequency: 20.000 Hz
*
* Freq(Hz)	SPL(dB)	Phase(degrees)
20.000000	90.125092	20.5367
20.299999	90.110046	19.3855
20.600000	90.056137	18.6284
20.900000	90.000969	18.3795
21.200001	89.997177	18.5436
21.400000	90.037437	18.7095
21.799999	90.203049	18.8179
22.000000	90.309395	18.6096
22.400000	90.508804	17.5476
22.700001	90.599632	16.3996
23.000000	90.622963	15.2281
23.299999	90.595924	14.2535
23.600000	90.543747	13.5970
24.000000	90.484253	13.2131
24.299999	90.478287	13.1243
24.700001	90.529160	12.9837
25.000000	90.595985	12.6985
25.400000	90.694595	11.9897
25.799999	90.768623	11.0072
26.200001	90.803101	9.9189
26.500000	90.805664	9.1522
26.900000	90.790909	8.3259
27.200001	90.784523	7.8653
27.600000	90.803780	7.3826
28.000000	90.856964	6.8572
28.500000	90.940437	5.8947
29.000000	90.985046	4.7091
29.500000	90.980179	3.6454
30.000000	90.963837	2.9128
30.400000	90.969406	2.4331
30.700001	90.979866	2.0516
31.100000	90.985405	1.4968
31.500000	90.974617	0.9919
32.000000	90.961327	0.6108
32.500000	90.997177	0.3326
33.000000	91.070702	-0.2787
33.500000	91.108017	-1.3400
34.000000	91.061211	-2.3751
34.500000	90.986877	-2.8962
35.000000	90.969612	-2.9911
35.500000	91.030281	-3.2488
36.000000	91.098969	-3.9514
36.500000	91.120216	-4.8384
37.000000	91.111862	-5.5245
37.500000	91.121735	-6.0362
38.200001	91.157364	-6.9117
38.700001	91.154236	-7.6454
39.500000	91.117668	-8.4811
40.000000	91.110237	-8.8742
40.599998	91.104706	-9.4248
41.200001	91.093689	-9.9242
41.799999	91.112305	-10.3926
42.500000	91.161003	-11.3542
43.099998	91.147224	-12.5199
43.700001	91.074051	-13.4116
44.400002	91.022980	-13.8823
45.000000	91.057167	-14.3430
45.500000	91.090981	-15.0319
46.200001	91.078209	-16.0431
46.799999	91.051445	-16.4998
47.500000	91.097717	-16.8706
48.200001	91.169930	-17.8136
48.700001	91.158867	-18.7431
49.400002	91.049225	-19.5889
50.000000	90.972397	-19.6644
50.799999	90.990417	-19.8443
51.500000	91.008736	-20.5611
52.200001	90.968658	-21.2992
53.000000	90.933022	-21.8348
53.799999	90.948883	-22.4378
54.500000	90.975998	-23.1880
55.200001	90.992897	-24.1614
56.000000	90.946396	-25.3495
57.000000	90.825287	-25.9881
58.000000	90.838089	-26.1382
59.000000	90.861847	-27.0430
60.000000	90.810349	-27.8180
60.799999	90.774704	-28.4276
61.500000	90.723679	-29.0296
62.200001	90.665001	-29.4962
63.000000	90.623222	-30.0040
64.000000	90.577370	-30.7585
65.000000	90.563004	-31.4738
66.000000	90.553688	-32.5276
67.000000	90.488113	-33.4152
68.000000	90.454315	-33.8992
69.000000	90.452866	-34.5351
70.000000	90.417007	-35.1638
71.000000	90.396828	-35.7169
72.000000	90.342339	-36.4741
73.000000	90.274162	-36.8428
74.000000	90.275017	-37.4316
75.000000	90.220146	-38.3178
76.199997	90.172363	-38.9856
77.500000	90.138077	-40.0646
78.800003	90.066338	-40.8414
80.000000	90.043526	-41.5254
81.199997	89.976608	-42.3214
82.500000	89.909889	-42.8398
83.800003	89.873886	-43.3827
85.000000	89.862335	-44.1760
86.199997	89.799034	-44.9851
87.500000	89.757050	-45.7012
88.500000	89.715118	-46.3197
90.000000	89.645882	-47.0278
91.199997	89.591080	-47.6476
92.500000	89.529091	-47.9743
93.800003	89.536438	-48.7705
95.000000	89.460678	-49.6432
96.199997	89.391785	-50.2704
97.500000	89.342354	-50.9163
98.800003	89.275818	-51.6530
100.000000	89.232147	-52.0652
101.500000	89.198982	-52.7855
103.000000	89.135124	-53.5630
104.400002	89.056557	-54.0878
106.000000	88.998596	-54.6923
107.500000	88.922852	-55.3525
109.000000	88.876556	-55.9598
110.599998	88.822052	-56.7076
112.000000	88.762192	-57.3884
113.800003	88.692383	-57.9075
115.000000	88.665337	-58.4706
117.199997	88.560020	-59.3426
118.000000	88.537231	-59.6235
120.599998	88.446350	-60.8046
122.000000	88.396683	-61.3354
124.099998	88.339874	-61.9656
125.000000	88.305969	-62.3860
126.500000	88.250992	-62.9055
128.000000	88.185471	-63.5209
131.500000	88.050705	-64.5551
132.000000	88.035660	-64.7447
134.000000	87.958267	-65.5263
136.000000	87.866241	-66.2953
138.000000	87.815849	-67.0535
140.000000	87.761475	-67.4668
143.000000	87.668053	-68.3593
145.000000	87.596077	-69.0480
147.500000	87.500267	-69.8910
150.000000	87.444336	-70.7631
152.500000	87.338234	-71.2401
155.000000	87.247208	-71.7159
157.500000	87.166893	-72.5199
160.000000	87.136703	-73.4005
162.500000	87.075645	-73.9021
165.000000	87.003250	-74.6083
167.500000	86.958572	-75.2363
170.000000	86.887421	-75.8090
172.500000	86.816071	-76.5194
175.000000	86.750954	-77.0601
177.500000	86.646957	-77.6527
180.000000	86.570145	-78.0221
182.500000	86.481918	-78.6562
185.000000	86.365028	-79.2140
187.500000	86.433693	-79.6330
190.000000	86.348412	-80.3409
192.500000	86.229752	-80.6925
195.000000	86.152016	-81.3889
197.500000	86.083740	-81.9969
200.000000	86.026894	-82.5753
203.000000	85.970551	-83.0105
206.000000	85.897812	-83.6540
209.000000	85.805603	-83.9547
212.000000	85.748550	-84.4850
214.000000	85.696678	-84.9491
218.000000	85.644859	-85.6476
220.000000	85.607712	-85.9229
224.000000	85.518723	-86.5027
227.000000	85.475151	-87.0383
230.000000	85.436287	-87.4948
233.000000	85.394241	-87.9687
236.000000	85.366524	-88.4583
240.000000	85.299484	-89.2120
243.000000	85.221962	-89.7523
247.000000	85.171097	-90.1218
250.000000	85.160126	-90.6873
254.000000	85.098221	-91.0419
258.000000	85.023834	-91.7449
262.000000	84.961639	-92.2152
265.000000	84.924263	-92.7618
269.000000	84.868713	-93.0554
272.000000	84.834816	-93.4939
276.000000	84.762276	-94.1683
280.000000	84.741028	-94.2198
285.000000	84.702972	-94.8691
290.000000	84.654755	-95.5739
295.000000	84.581955	-96.1676
300.000000	84.573929	-96.4460
304.000000	84.494606	-96.9508
307.000000	84.480667	-97.3590
311.000000	84.461464	-97.6478
315.000000	84.426140	-97.9792
320.000000	84.400925	-98.4569
325.000000	84.347969	-98.5559
330.000000	84.300568	-99.2900
335.000000	84.284332	-99.7534
340.000000	84.243874	-100.1968
345.000000	84.207397	-100.6254
350.000000	84.135483	-100.9469
355.000000	84.170502	-101.6312
360.000000	84.132912	-101.8012
365.000000	84.076820	-102.2116
370.000000	84.077919	-102.6806
375.000000	84.031464	-102.7087
382.000000	84.014313	-103.4719
387.000000	84.024406	-104.0303
395.000000	83.999115	-104.4397
400.000000	83.928375	-104.4436
406.000000	83.980240	-105.2432
412.000000	83.916542	-105.5815
418.000000	83.936157	-105.9441
425.000000	83.941879	-106.4732
431.000000	83.880035	-106.6561
437.000000	83.905045	-107.0660
444.000000	83.855835	-107.6115
450.000000	83.817413	-107.5038
455.000000	83.850166	-108.0117
462.000000	83.861359	-108.4197
468.000000	83.866608	-108.9691
475.000000	83.805237	-109.2705
482.000000	83.842529	-109.7290
487.000000	83.844780	-110.0498
494.000000	83.835846	-110.3414
500.000000	83.829285	-110.3045
508.000000	83.788261	-111.0448
515.000000	83.782028	-111.4432
522.000000	83.798035	-111.7026
530.000000	83.785942	-111.8326
538.000000	83.763268	-112.3882
545.000000	83.779633	-112.4201
552.000000	83.737473	-112.7409
560.000000	83.757317	-112.8601
570.000000	83.762009	-113.2675
580.000000	83.758881	-113.6499
590.000000	83.745880	-113.9004
600.000000	83.754433	-113.9557
608.000000	83.729019	-114.3902
615.000000	83.728348	-114.5145
622.000000	83.729210	-114.6777
630.000000	83.745880	-114.8304
640.000000	83.741394	-115.0558
650.000000	83.767151	-115.3571
660.000000	83.747391	-115.3895
670.000000	83.755173	-115.5343
680.000000	83.752800	-115.7553
690.000000	83.765541	-115.8643
700.000000	83.746368	-115.9205
710.000000	83.760300	-115.9921
720.000000	83.766571	-116.1240
730.000000	83.773796	-116.0983
740.000000	83.789421	-116.2483
750.000000	83.812996	-116.2603
762.000000	83.815025	-116.2517
775.000000	83.820343	-116.1719
788.000000	83.832474	-116.2539
800.000000	83.854805	-116.2619
812.000000	83.855850	-116.2061
825.000000	83.882523	-116.0783
838.000000	83.897308	-116.0447
850.000000	83.919022	-115.9574
862.000000	83.946274	-115.8479
875.000000	83.977051	-115.7696
885.000000	84.003784	-115.6507
900.000000	84.044861	-115.4954
912.000000	84.085655	-115.3839
925.000000	84.127167	-115.1863
938.000000	84.173157	-115.0967
950.000000	84.224297	-114.9633
962.000000	84.275185	-114.8225
975.000000	84.328987	-114.6953
988.000000	84.411873	-114.5411
1000.000000	84.529297	-114.3410
1015.000000	84.528397	-114.4385
1030.000000	84.586006	-114.4072
1044.000000	84.662369	-114.3810
1060.000000	84.748474	-114.3796
1075.000000	84.821915	-114.3718
1090.000000	84.919563	-114.5032
1106.000000	85.007050	-114.5702
1120.000000	85.095291	-114.6870
1138.000000	85.200607	-114.9001
1150.000000	85.272118	-115.0580
1172.000000	85.400146	-115.4059
1180.000000	85.446495	-115.5395
1206.000000	85.578377	-116.0175
1220.000000	85.665054	-116.3159
1241.000000	85.766762	-116.7039
1250.000000	85.803909	-116.9248
1265.000000	85.876366	-117.2649
1280.000000	85.940559	-117.5868
1315.000000	86.080406	-118.3488
1320.000000	86.096512	-118.4452
1340.000000	86.174255	-118.8866
1360.000000	86.238632	-119.3102
1380.000000	86.301117	-119.7007
1400.000000	86.361206	-120.0666
1430.000000	86.428886	-120.5852
1450.000000	86.477249	-120.9291
1475.000000	86.541031	-121.3289
1500.000000	86.595428	-121.6715
1525.000000	86.640694	-121.9384
1550.000000	86.709862	-122.2244
1575.000000	86.769775	-122.4670
1600.000000	86.826401	-122.7104
1625.000000	86.893478	-122.8849
1650.000000	86.954552	-123.0478
1675.000000	87.024734	-123.1926
1700.000000	87.086906	-123.3003
1725.000000	87.160774	-123.4339
1750.000000	87.236656	-123.5570
1775.000000	87.323708	-123.6339
1800.000000	87.405220	-123.7490
1825.000000	87.500275	-123.8593
1850.000000	87.591820	-124.0057
1875.000000	87.691734	-124.1067
1900.000000	87.790817	-124.2914
1925.000000	87.903656	-124.4585
1950.000000	88.014900	-124.6804
1975.000000	88.114944	-124.9613
2000.000000	88.179382	-125.5373
2030.000000	88.394211	-125.5924
2060.000000	88.562592	-126.0137
2090.000000	88.721367	-126.5930
2120.000000	88.885307	-127.2897
2140.000000	88.988167	-127.8117
2180.000000	89.186630	-128.9442
2200.000000	89.290009	-129.5790
2240.000000	89.472076	-131.2099
2270.000000	89.586212	-132.7848
2300.000000	89.683563	-134.6010
2330.000000	89.779800	-136.4950
2360.000000	89.843636	-138.4499
2400.000000	89.906929	-140.8375
2430.000000	89.938889	-142.4544
2470.000000	89.939201	-144.4194
2500.000000	89.922165	-145.9012
2540.000000	89.855492	-147.7301
2580.000000	89.780312	-149.4462
2620.000000	89.681458	-151.0650
2650.000000	89.602211	-152.1930
2690.000000	89.481705	-153.5792
2720.000000	89.382179	-154.4724
2760.000000	89.245064	-155.5381
2800.000000	89.099464	-156.4408
2850.000000	88.941742	-157.3171
2900.000000	88.818207	-158.0606
2950.000000	88.734161	-158.7489
3000.000000	88.672714	-159.2732
3040.000000	88.634132	-160.3443
3070.000000	88.594254	-161.0204
3110.000000	88.536873	-161.8637
3150.000000	88.475929	-162.7556
3200.000000	88.403534	-163.7419
3250.000000	88.329941	-164.7351
3300.000000	88.259155	-165.7129
3350.000000	88.200806	-166.7404
3400.000000	88.140350	-167.8042
3450.000000	88.082291	-168.9046
3500.000000	88.026726	-170.1040
3550.000000	87.924591	-171.2309
3600.000000	87.805634	-171.8572
3650.000000	87.749794	-172.0821
3700.000000	87.780746	-172.7396
3750.000000	87.796783	-173.6568
3820.000000	87.808884	-175.1882
3870.000000	87.788506	-176.3889
3950.000000	87.716751	-178.4445
4000.000000	87.629639	-179.9157
4060.000000	87.554573	178.7436
4120.000000	87.429535	177.1915
4180.000000	87.270966	175.7229
4250.000000	87.071060	174.2687
4310.000000	86.864822	173.1718
4370.000000	86.647514	172.2852
4440.000000	86.378815	171.5563
4500.000000	86.142227	171.2154
4550.000000	85.958572	171.1135
4620.000000	85.703674	171.4911
4680.000000	85.522636	172.1602
4750.000000	85.344513	173.4241
4820.000000	85.279510	174.9897
4870.000000	85.304008	176.3690
4940.000000	85.472336	178.0257
5000.000000	85.732727	178.9787
5080.000000	86.218208	179.6655
5150.000000	86.691170	178.6477
5220.000000	87.092667	176.3170
5300.000000	87.358871	172.4491
5380.000000	87.346069	168.3345
5450.000000	87.145035	165.1554
5520.000000	86.778542	162.7883
5600.000000	86.290482	161.1703
5700.000000	85.676682	160.4518
5800.000000	85.128502	160.9752
5900.000000	84.664024	162.3952
6000.000000	84.287270	164.3601
6080.000000	84.091949	166.2011
6150.000000	83.963280	168.0219
6220.000000	83.901207	169.7575
6300.000000	83.871819	171.9674
6400.000000	83.937622	174.5836
6500.000000	84.069740	177.2872
6600.000000	84.314468	179.8799
6700.000000	84.669235	-177.8269
6800.000000	85.091919	-175.9981
6900.000000	85.617050	-174.7330
7000.000000	86.235252	-173.9807
7100.000000	86.908699	-174.0823
7200.000000	87.602776	-175.1609
7300.000000	88.286697	-177.3310
7400.000000	88.904274	179.3414
7500.000000	89.389816	174.9059
7620.000000	89.702934	168.7956
7750.000000	89.676369	161.9785
7880.000000	89.259735	156.0750
8000.000000	88.708481	152.0897
8120.000000	88.117317	149.7478
8250.000000	87.524895	148.4932
8380.000000	87.019958	148.1833
8500.000000	86.671707	148.3132
8620.000000	86.417740	148.4980
8750.000000	86.198418	148.4786
8850.000000	86.082024	148.0528
9000.000000	85.920593	146.6919
9120.000000	85.783951	144.7830
9250.000000	85.526276	141.7566
9380.000000	85.162338	139.0329
9500.000000	84.706558	135.6443
9620.000000	84.112877	132.6371
9750.000000	83.299820	129.4854
9880.000000	82.308464	127.2629
10000.000000	81.360764	126.3288
10150.000000	80.205368	126.1843
10300.000000	79.013115	126.9059
10440.000000	77.958443	128.1810
10600.000000	76.710732	130.8597
10750.000000	75.586349	134.1185
10900.000000	74.528076	138.1926
11060.000000	73.473602	143.0679
11200.000000	72.576569	148.3851
11380.000000	71.680885	156.1723
11500.000000	71.117561	161.8679
11720.000000	70.534500	172.2224
11800.000000	70.433487	176.5344
12060.000000	70.188286	-171.4222
12200.000000	70.212517	-166.1721
12410.000000	70.539001	-157.6367
12500.000000	70.785431	-154.1976
12650.000000	71.136955	-148.6778
12800.000000	71.692368	-143.9750
13150.000000	73.211960	-135.7908
13200.000000	73.406105	-135.1593
13400.000000	74.376320	-132.9453
13600.000000	75.284317	-131.8668
13800.000000	76.191093	-132.1279
14000.000000	77.009048	-133.4512
14300.000000	78.077713	-136.8247
14500.000000	78.741013	-139.1010
14750.000000	79.563370	-142.7740
15000.000000	80.336830	-147.1917
15250.000000	81.145653	-151.9674
15500.000000	81.981987	-156.7936
15750.000000	83.136635	-161.3245
16000.000000	84.939835	-167.2905
16250.000000	87.481010	-178.0509
16500.000000	90.635597	161.4962
16750.000000	93.464149	126.5158
17000.000000	94.141716	78.5288
17250.000000	91.995995	30.5185
17500.000000	87.776611	-8.4918
17750.000000	82.835556	-36.1568
18000.000000	78.123512	-57.0651
18250.000000	74.163727	-72.7219
18500.000000	70.864075	-85.9626
18750.000000	68.228874	-96.4297
19000.000000	66.002914	-106.8109
19250.000000	64.097160	-117.9768
19500.000000	62.832489	-131.7463
19750.000000	61.157776	-153.8286
