* Measurement data measured by REW V5.20 Beta 47
* Source: Headset (USB-C to 3.5mm Headphone Jack Adapter), MICROPHONE (Master Volume), R, volume: 0.000
* Format: 256k Log Swept Sine, 1 sweep at 0.0 dBFS with no timing reference
* Dated: May 3, 2020 6:00:52 PM
* REW Settings:
*  C-weighting compensation: Off
*  Target level: 75.0 dB
* Note: ; 
* Measurement: 64Audio U18t R
* Smoothing: None
* Frequency Step: 1/48 octave
* Start Frequency: 20.300 Hz
*
* Freq(Hz)	SPL(dB)	Phase(degrees)
20.3000	91.5920	21.13
20.6000	91.6058	20.52
20.9000	91.6091	20.13
21.2000	91.6266	19.85
21.4000	91.6484	19.68
21.8000	91.7118	19.34
22.0000	91.7501	19.13
22.4000	91.8293	18.56
22.7000	91.8766	18.06
23.0000	91.9089	17.51
23.3000	91.9300	16.94
23.6000	91.9413	16.36
24.0000	91.9470	15.59
24.3000	91.9501	15.02
24.7000	91.9553	14.31
25.0000	91.9605	13.85
25.4000	91.9729	13.39
25.8000	91.9911	13.13
26.2000	92.0204	13.02
26.5000	92.0501	12.96
26.9000	92.0925	12.82
27.2000	92.1208	12.61
27.6000	92.1461	12.17
28.0000	92.1508	11.59
28.5000	92.1441	10.82
29.0000	92.1528	10.13
29.5000	92.1929	9.43
30.0000	92.2365	8.68
30.4000	92.2519	8.07
30.7000	92.2474	7.70
31.1000	92.2327	7.35
31.5000	92.2278	7.12
32.0000	92.2497	6.81
32.5000	92.2877	6.27
33.0000	92.3074	5.60
33.5000	92.3031	5.02
34.0000	92.2962	4.65
34.5000	92.3065	4.36
35.0000	92.3188	4.02
35.5000	92.3202	3.62
36.0000	92.3177	3.23
36.5000	92.3259	2.81
37.0000	92.3404	2.29
37.5000	92.3449	1.73
38.2000	92.3276	1.15
38.7000	92.3243	0.89
39.5000	92.3496	0.36
40.0000	92.3512	-0.11
40.6000	92.3280	-0.64
41.2000	92.3117	-1.00
41.8000	92.3160	-1.37
42.5000	92.3111	-1.93
43.1000	92.2912	-2.37
43.7000	92.2820	-2.74
44.4000	92.2861	-3.23
45.0000	92.2848	-3.65
45.5000	92.2832	-3.93
46.2000	92.2853	-4.31
46.8000	92.2741	-4.73
47.5000	92.2358	-5.18
48.2000	92.2094	-5.48
48.7000	92.2137	-5.74
49.4000	92.2220	-6.25
50.0000	92.2038	-6.67
50.8000	92.1700	-7.03
51.5000	92.1477	-7.23
52.2000	92.1234	-7.49
53.0000	92.0973	-7.86
53.8000	92.0818	-8.33
54.5000	92.0645	-8.76
55.2000	92.0524	-9.05
56.0000	92.0549	-9.33
57.0000	92.0277	-9.82
58.0000	91.9778	-10.15
59.0000	91.9582	-10.58
60.0000	91.9311	-11.08
60.8000	91.9049	-11.42
61.5000	91.8840	-11.69
62.2000	91.8592	-11.97
63.0000	91.8274	-12.29
64.0000	91.7940	-12.69
65.0000	91.7760	-13.11
66.0000	91.7405	-13.51
67.0000	91.6917	-13.79
68.0000	91.6518	-14.13
69.0000	91.6269	-14.49
70.0000	91.6061	-14.78
71.0000	91.5749	-15.01
72.0000	91.5304	-15.29
73.0000	91.4857	-15.58
74.0000	91.4591	-15.89
75.0000	91.4354	-16.28
76.2000	91.3952	-16.60
77.5000	91.3703	-16.90
78.8000	91.3249	-17.24
80.0000	91.2905	-17.48
81.2000	91.2424	-17.80
82.5000	91.1905	-18.09
83.8000	91.1537	-18.32
85.0000	91.1069	-18.53
86.2000	91.0930	-18.81
87.5000	91.0516	-19.26
88.5000	91.0042	-19.26
90.0000	90.9493	-19.63
91.2000	90.8885	-19.83
92.5000	90.8428	-20.07
93.8000	90.7812	-20.27
95.0000	90.7556	-20.58
96.2000	90.7028	-20.78
97.5000	90.6605	-20.85
98.8000	90.6306	-21.08
100.0000	90.5901	-21.29
101.5000	90.5338	-21.48
103.0000	90.4781	-21.64
104.4000	90.4252	-21.86
106.0000	90.3720	-22.04
107.5000	90.3291	-22.22
109.0000	90.2795	-22.39
110.6000	90.2295	-22.60
112.0000	90.1903	-22.67
113.8000	90.1299	-22.94
115.0000	90.0951	-22.90
117.2000	90.0240	-23.18
118.0000	89.9952	-23.27
120.6000	89.9114	-23.37
122.0000	89.8679	-23.49
124.1000	89.7986	-23.57
125.0000	89.7701	-23.61
126.5000	89.7213	-23.71
128.0000	89.6884	-23.71
131.5000	89.5903	-23.91
132.0000	89.5693	-23.89
134.0000	89.5115	-24.03
136.0000	89.4787	-23.96
138.0000	89.4201	-24.03
140.0000	89.3568	-24.13
143.0000	89.2956	-24.17
145.0000	89.2387	-24.37
147.5000	89.2038	-24.24
150.0000	89.1514	-24.42
152.5000	89.0812	-24.40
155.0000	89.0420	-24.66
157.5000	89.0115	-24.78
160.0000	88.9537	-24.67
162.5000	88.9028	-24.79
165.0000	88.8638	-25.05
167.5000	88.8004	-24.87
170.0000	88.7472	-24.97
172.5000	88.7041	-25.02
175.0000	88.6361	-24.99
177.5000	88.5836	-25.13
180.0000	88.5181	-25.08
182.5000	88.4609	-25.21
185.0000	88.4069	-25.07
187.5000	88.3463	-25.08
190.0000	88.2823	-25.03
192.5000	88.2342	-25.00
195.0000	88.1763	-25.04
197.5000	88.1197	-24.97
200.0000	88.0818	-24.95
203.0000	88.0082	-24.97
206.0000	87.9555	-24.89
209.0000	87.9002	-24.86
212.0000	87.8393	-24.83
214.0000	87.8090	-24.75
218.0000	87.7550	-24.77
220.0000	87.7298	-24.67
224.0000	87.6746	-24.60
227.0000	87.6337	-24.53
230.0000	87.6034	-24.55
233.0000	87.5588	-24.38
236.0000	87.5160	-24.33
240.0000	87.4675	-24.26
243.0000	87.4174	-24.22
247.0000	87.3590	-24.04
250.0000	87.3345	-24.06
254.0000	87.2695	-23.92
258.0000	87.2244	-23.79
262.0000	87.1626	-23.73
265.0000	87.1294	-23.61
269.0000	87.0746	-23.53
272.0000	87.0386	-23.44
276.0000	86.9929	-23.29
280.0000	86.9480	-23.19
285.0000	86.8907	-23.08
290.0000	86.8558	-23.01
295.0000	86.7953	-22.76
300.0000	86.7424	-22.61
304.0000	86.7039	-22.51
307.0000	86.6729	-22.38
311.0000	86.6325	-22.33
315.0000	86.5908	-22.16
320.0000	86.5546	-21.99
325.0000	86.4961	-21.88
330.0000	86.4549	-21.67
335.0000	86.4065	-21.48
340.0000	86.3633	-21.38
345.0000	86.3206	-21.20
350.0000	86.2815	-21.07
355.0000	86.2319	-20.91
360.0000	86.1840	-20.77
365.0000	86.1353	-20.50
370.0000	86.1025	-20.40
375.0000	86.0663	-20.30
382.0000	86.0110	-20.10
387.0000	85.9762	-19.92
395.0000	85.9225	-19.64
400.0000	85.8930	-19.47
406.0000	85.8515	-19.30
412.0000	85.8100	-19.11
418.0000	85.7726	-18.91
425.0000	85.7246	-18.69
431.0000	85.6906	-18.44
437.0000	85.6613	-18.29
444.0000	85.6279	-18.04
450.0000	85.6020	-17.80
455.0000	85.5763	-17.68
462.0000	85.5364	-17.52
468.0000	85.5066	-17.42
475.0000	85.4616	-17.25
482.0000	85.4239	-17.06
487.0000	85.4014	-16.95
494.0000	85.3720	-16.80
500.0000	85.3444	-16.61
508.0000	85.3132	-16.44
515.0000	85.2672	-16.05
522.0000	85.2276	-15.81
530.0000	85.1969	-15.51
538.0000	85.1558	-15.28
545.0000	85.1208	-15.02
552.0000	85.0934	-14.74
560.0000	85.0651	-14.52
570.0000	85.0254	-14.15
580.0000	84.9811	-13.80
590.0000	84.9454	-13.32
600.0000	84.9084	-13.03
608.0000	84.8820	-12.69
615.0000	84.8652	-12.42
622.0000	84.8416	-12.17
630.0000	84.8235	-11.76
640.0000	84.7922	-11.47
650.0000	84.7739	-11.07
660.0000	84.7449	-10.65
670.0000	84.7195	-10.28
680.0000	84.7098	-9.87
690.0000	84.6802	-9.48
700.0000	84.6627	-9.00
710.0000	84.6428	-8.62
720.0000	84.6246	-8.16
730.0000	84.6177	-7.69
740.0000	84.6018	-7.30
750.0000	84.5883	-6.87
762.0000	84.5779	-6.33
775.0000	84.5565	-5.75
788.0000	84.5528	-5.16
800.0000	84.5516	-4.62
812.0000	84.5428	-4.07
825.0000	84.5484	-3.50
838.0000	84.5523	-2.91
850.0000	84.5631	-2.37
862.0000	84.5786	-1.80
875.0000	84.5868	-1.23
885.0000	84.6024	-0.79
900.0000	84.6301	-0.15
912.0000	84.6678	0.40
925.0000	84.6914	0.93
938.0000	84.7357	1.47
950.0000	84.7717	1.94
962.0000	84.8087	2.46
975.0000	84.8531	2.93
988.0000	84.9295	3.42
1000.0000	85.0381	4.04
1015.0000	85.0171	4.31
1030.0000	85.0645	4.72
1044.0000	85.1211	5.10
1060.0000	85.1963	5.53
1075.0000	85.2685	5.89
1090.0000	85.3420	6.20
1106.0000	85.4350	6.46
1120.0000	85.5136	6.69
1138.0000	85.6008	6.93
1150.0000	85.6662	7.10
1172.0000	85.7790	7.29
1180.0000	85.8179	7.33
1206.0000	85.9461	7.44
1220.0000	86.0251	7.56
1241.0000	86.1298	7.61
1250.0000	86.1757	7.56
1265.0000	86.2569	7.64
1280.0000	86.3275	7.62
1315.0000	86.4712	7.58
1320.0000	86.4858	7.58
1340.0000	86.5727	7.62
1360.0000	86.6618	7.56
1380.0000	86.7374	7.54
1400.0000	86.8147	7.53
1430.0000	86.9051	7.59
1450.0000	86.9898	7.55
1475.0000	87.0801	7.48
1500.0000	87.1744	7.57
1525.0000	87.2501	7.64
1550.0000	87.3503	7.65
1575.0000	87.4427	7.65
1600.0000	87.5403	7.70
1625.0000	87.6370	7.83
1650.0000	87.7296	7.85
1675.0000	87.8365	7.99
1700.0000	87.9360	8.04
1725.0000	88.0544	8.13
1750.0000	88.1666	8.23
1775.0000	88.2761	8.25
1800.0000	88.4102	8.34
1825.0000	88.5422	8.30
1850.0000	88.6768	8.36
1875.0000	88.8153	8.44
1900.0000	88.9590	8.38
1925.0000	89.1199	8.33
1950.0000	89.2712	8.24
1975.0000	89.4323	8.00
2000.0000	89.5496	7.50
2030.0000	89.8537	7.39
2060.0000	90.0986	6.98
2090.0000	90.3551	6.11
2120.0000	90.6027	5.07
2140.0000	90.7630	4.20
2180.0000	91.0765	2.02
2200.0000	91.2049	0.68
2240.0000	91.3863	-2.52
2270.0000	91.4108	-5.32
2300.0000	91.3534	-8.24
2330.0000	91.2271	-10.93
2360.0000	91.0329	-13.17
2400.0000	90.7250	-15.14
2430.0000	90.5123	-15.81
2470.0000	90.2419	-16.00
2500.0000	90.0751	-15.78
2540.0000	89.9058	-15.31
2580.0000	89.8017	-14.62
2620.0000	89.7413	-13.91
2650.0000	89.7377	-13.41
2690.0000	89.7724	-12.88
2720.0000	89.8287	-12.55
2760.0000	89.9115	-12.29
2800.0000	90.0113	-12.13
2850.0000	90.1563	-12.23
2900.0000	90.3237	-12.51
2950.0000	90.4976	-13.10
3000.0000	90.6754	-13.55
3040.0000	90.8203	-14.78
3070.0000	90.9204	-15.62
3110.0000	91.0414	-16.81
3150.0000	91.1523	-18.06
3200.0000	91.2574	-19.92
3250.0000	91.3390	-22.01
3300.0000	91.3709	-24.28
3350.0000	91.3759	-26.67
3400.0000	91.3070	-29.14
3450.0000	91.2020	-31.53
3500.0000	91.0299	-34.01
3550.0000	90.8464	-36.16
3600.0000	90.5982	-38.16
3650.0000	90.2953	-39.98
3700.0000	89.9392	-41.66
3750.0000	89.6129	-42.80
3820.0000	89.0347	-43.78
3870.0000	88.6255	-44.10
3950.0000	87.9678	-44.04
4000.0000	87.4718	-43.62
4060.0000	87.0753	-41.83
4120.0000	86.6647	-40.14
4180.0000	86.2600	-37.71
4250.0000	85.8639	-35.00
4310.0000	85.6323	-31.37
4370.0000	85.5064	-28.02
4440.0000	85.4466	-24.59
4500.0000	85.6118	-20.61
4550.0000	85.5986	-17.86
4620.0000	85.8817	-14.58
4680.0000	86.2390	-12.03
4750.0000	86.7009	-8.59
4820.0000	87.2669	-6.68
4870.0000	87.6442	-6.54
4940.0000	88.3827	-6.14
5000.0000	88.8458	-6.60
5080.0000	89.3257	-9.20
5150.0000	89.7551	-11.58
5220.0000	89.9094	-13.32
5300.0000	89.9470	-17.51
5380.0000	89.8244	-19.14
5450.0000	89.5639	-21.57
5520.0000	89.4387	-22.07
5600.0000	88.9160	-22.09
5700.0000	88.7422	-21.22
5800.0000	88.4502	-19.87
5900.0000	88.1737	-16.73
6000.0000	88.2434	-15.10
6080.0000	88.2588	-12.89
6150.0000	88.1187	-11.41
6220.0000	88.4420	-11.23
6300.0000	88.4455	-9.88
6400.0000	88.9738	-8.42
6500.0000	89.0669	-7.21
6600.0000	89.4228	-7.17
6700.0000	89.9979	-8.73
6800.0000	90.1341	-8.62
6900.0000	90.4280	-10.34
7000.0000	90.6867	-14.58
7100.0000	90.8474	-15.15
7200.0000	90.9231	-17.58
7300.0000	90.5378	-19.34
7400.0000	90.5316	-23.69
7500.0000	90.0867	-23.09
7620.0000	89.8938	-24.27
7750.0000	89.5528	-24.28
7880.0000	89.9212	-24.44
8000.0000	89.8297	-22.47
8120.0000	89.6132	-26.44
8250.0000	89.5910	-24.68
8380.0000	89.5383	-29.07
8500.0000	89.9737	-34.59
8620.0000	89.6445	-41.05
8750.0000	88.7369	-45.94
8850.0000	87.7086	-49.13
9000.0000	85.4293	-49.99
9120.0000	84.0768	-53.76
9250.0000	83.2406	-48.18
9380.0000	82.0574	-47.63
9500.0000	81.1501	-44.97
9620.0000	79.9509	-35.33
9750.0000	79.1986	-35.92
9880.0000	78.2488	-29.69
10000.0000	77.8663	-22.63
10150.0000	76.3270	-14.43
10300.0000	75.9997	-6.31
10440.0000	75.3202	-4.58
10600.0000	75.4431	9.31
10750.0000	75.5639	14.77
10900.0000	74.6860	14.51
11060.0000	74.4716	22.01
11200.0000	75.6765	27.99
11380.0000	75.4705	31.37
11500.0000	75.6864	28.13
11720.0000	74.6269	27.98
11800.0000	75.0320	34.23
12060.0000	74.8530	35.74
12200.0000	72.8370	44.35
12410.0000	73.8071	38.63
12500.0000	74.6621	50.17
12650.0000	74.3615	40.58
12800.0000	73.9638	41.44
13150.0000	74.2792	51.42
13200.0000	75.5265	43.66
13400.0000	77.6753	42.74
13600.0000	77.4656	49.53
13800.0000	79.4881	41.79
14000.0000	80.8255	6.87
14300.0000	83.0110	-23.02
14500.0000	82.2410	-28.35
14750.0000	78.8596	-55.85
15000.0000	80.0283	-71.22
15250.0000	79.7510	-58.57
15500.0000	80.7276	-70.81
15750.0000	86.5568	-110.47
16000.0000	89.7292	-146.85
16250.0000	85.6523	159.75
16500.0000	85.0302	118.36
16750.0000	87.3022	53.97
17000.0000	81.5735	12.90
17250.0000	81.5020	-5.88
17500.0000	71.7244	-27.66
17750.0000	68.1960	-45.30
18000.0000	72.8232	-62.12
18250.0000	65.6987	-97.83
18500.0000	66.2961	-102.97
18750.0000	60.9488	-68.76
19000.0000	62.2224	-88.83
19250.0000	56.5782	-87.80
19500.0000	56.6577	-152.28
19750.0000	48.3669	172.89
