* Measurement data measured by REW V5.20 Beta 47
* Source: Headset (USB-C to 3.5mm Headphone Jack Adapter), MICROPHONE (Master Volume), L, volume: 0.000
* Format: 256k Log Swept Sine, 1 sweep at -3.0 dBFS with no timing reference
* Dated: Jul 25, 2020 9:08:13 PM
* REW Settings:
*  C-weighting compensation: Off
*  Target level: 75.0 dB
* Note: ; 
* Measurement: AAW A3H R
* Smoothing: None
* Frequency Step: 1/48 octave
* Start Frequency: 20.000 Hz
*
* Freq(Hz)	SPL(dB)	Phase(degrees)
20.0000	85.8686	42.15
20.3000	85.9524	41.61
20.6000	86.0393	41.09
20.9000	86.1307	40.57
21.2000	86.2308	40.00
21.4000	86.2977	39.56
21.8000	86.4224	38.58
22.0000	86.4758	38.04
22.4000	86.5577	36.91
22.7000	86.5917	36.14
23.0000	86.6102	35.53
23.3000	86.6326	35.12
23.6000	86.6730	34.87
24.0000	86.7689	34.59
24.3000	86.8670	34.26
24.7000	86.9985	33.52
25.0000	87.0692	32.82
25.4000	87.1112	31.92
25.8000	87.1138	31.39
26.2000	87.1384	31.29
26.5000	87.2005	31.30
26.9000	87.3342	31.11
27.2000	87.4408	30.65
27.6000	87.5391	29.67
28.0000	87.5542	28.68
28.5000	87.5071	28.01
29.0000	87.5173	28.05
29.5000	87.6526	28.00
30.0000	87.8285	27.17
30.4000	87.9205	26.02
30.7000	87.9434	25.12
31.1000	87.9294	24.09
31.5000	87.9001	23.36
32.0000	87.8882	22.77
32.5000	87.9208	22.25
33.0000	87.9760	21.60
33.5000	88.0249	20.79
34.0000	88.0427	19.95
34.5000	88.0348	19.30
35.0000	88.0321	19.01
35.5000	88.0825	18.90
36.0000	88.1836	18.58
36.5000	88.2797	17.85
37.0000	88.3222	16.97
37.5000	88.3267	16.31
38.2000	88.3587	15.80
38.7000	88.4200	15.36
39.5000	88.5091	14.34
40.0000	88.5422	13.72
40.6000	88.5792	13.06
41.2000	88.6218	12.43
41.8000	88.6652	11.82
42.5000	88.7191	11.13
43.1000	88.7597	10.44
43.7000	88.7703	9.75
44.4000	88.7651	9.24
45.0000	88.8034	8.93
45.5000	88.8620	8.41
46.2000	88.8889	7.24
46.8000	88.8306	6.45
47.5000	88.8080	6.20
48.2000	88.8989	5.62
48.7000	88.9376	4.70
49.4000	88.8943	3.74
50.0000	88.9136	3.52
50.8000	89.0418	2.21
51.5000	88.9032	0.64
52.2000	88.6782	1.59
53.0000	89.0055	3.46
53.8000	89.4043	0.84
54.5000	89.1803	-1.89
55.2000	88.8623	-1.37
56.0000	88.9877	-0.36
57.0000	89.0411	-2.21
58.0000	88.9414	-2.36
59.0000	89.0865	-3.53
60.0000	88.9901	-5.07
60.8000	88.9704	-5.38
61.5000	89.0045	-6.08
62.2000	88.9604	-6.87
63.0000	88.8800	-7.07
64.0000	88.9129	-6.91
65.0000	89.0081	-7.61
66.0000	88.9816	-8.75
67.0000	88.9173	-9.35
68.0000	88.8918	-9.99
69.0000	88.8620	-10.45
70.0000	88.9125	-10.97
71.0000	88.9105	-11.98
72.0000	88.8855	-12.41
73.0000	88.9206	-13.10
74.0000	88.8718	-13.83
75.0000	88.8620	-14.21
76.2000	88.8355	-15.02
77.5000	88.8321	-15.70
78.8000	88.7802	-16.63
80.0000	88.7886	-17.29
81.2000	88.7359	-17.94
82.5000	88.7834	-18.71
83.8000	88.6927	-19.46
85.0000	88.7200	-19.85
86.2000	88.6838	-20.79
87.5000	88.6161	-21.03
88.5000	88.6787	-21.79
90.0000	88.4837	-22.69
91.2000	88.5043	-23.06
92.5000	88.5081	-23.24
93.8000	88.5220	-25.28
95.0000	88.3829	-25.23
96.2000	88.3790	-26.12
97.5000	88.3845	-26.17
98.8000	88.3238	-27.16
100.0000	88.3550	-27.51
101.5000	88.2507	-27.98
103.0000	88.2593	-29.14
104.4000	88.1719	-29.05
106.0000	88.1346	-30.13
107.5000	88.0591	-30.26
109.0000	88.0341	-31.63
110.6000	87.9591	-31.76
112.0000	87.8945	-32.68
113.8000	87.9915	-33.67
115.0000	87.8323	-33.83
117.2000	87.8425	-34.92
118.0000	87.8155	-35.13
120.6000	87.7431	-35.42
122.0000	87.6930	-36.51
124.1000	87.6365	-37.86
125.0000	87.5176	-37.43
126.5000	87.6239	-37.82
128.0000	87.4213	-38.52
131.5000	87.2746	-39.14
132.0000	87.3772	-38.96
134.0000	87.2259	-40.70
136.0000	87.3710	-40.94
138.0000	87.1327	-41.66
140.0000	87.1463	-42.11
143.0000	86.9944	-43.73
145.0000	86.9860	-43.08
147.5000	86.7430	-45.18
150.0000	86.9614	-44.57
152.5000	86.5804	-46.05
155.0000	86.7024	-46.22
157.5000	86.4752	-47.32
160.0000	86.5973	-47.58
162.5000	86.5176	-47.95
165.0000	86.4325	-49.07
167.5000	86.3067	-48.13
170.0000	86.2718	-51.23
172.5000	85.8862	-51.10
175.0000	86.2295	-50.36
177.5000	86.0874	-52.46
180.0000	85.6431	-52.05
182.5000	85.7091	-51.67
185.0000	85.7879	-52.17
187.5000	85.5148	-53.95
190.0000	85.3136	-54.45
192.5000	85.4887	-53.60
195.0000	85.3706	-55.43
197.5000	85.1358	-55.58
200.0000	85.0868	-53.57
203.0000	85.2692	-55.92
206.0000	84.9261	-58.72
209.0000	84.4512	-55.99
212.0000	84.6699	-54.66
214.0000	84.9206	-55.12
218.0000	84.9204	-59.76
220.0000	84.5294	-60.56
224.0000	84.1348	-58.78
227.0000	84.0664	-58.84
230.0000	83.9832	-56.96
233.0000	84.3204	-57.86
236.0000	84.0585	-59.57
240.0000	84.2351	-59.99
243.0000	83.6657	-60.61
247.0000	83.8927	-61.66
250.0000	83.2783	-61.54
254.0000	83.8524	-62.37
258.0000	83.5727	-57.39
262.0000	83.0765	-61.46
265.0000	83.1642	-59.13
269.0000	83.2817	-60.34
272.0000	83.2121	-61.50
276.0000	82.8013	-57.57
280.0000	83.1609	-63.92
285.0000	83.6405	-62.87
290.0000	83.4261	-55.08
295.0000	81.9704	-57.06
300.0000	82.4136	-63.14
304.0000	81.9865	-54.40
307.0000	81.9130	-56.03
311.0000	83.0643	-55.84
315.0000	82.6310	-61.91
320.0000	82.1810	-51.51
325.0000	82.2789	-63.93
330.0000	82.1443	-50.67
335.0000	82.8320	-61.85
340.0000	80.9702	-50.91
345.0000	83.5018	-54.65
350.0000	81.5717	-61.96
355.0000	81.7452	-48.43
360.0000	82.6869	-51.63
365.0000	82.6937	-54.96
370.0000	82.4934	-56.32
375.0000	81.9112	-57.69
382.0000	83.0784	-51.37
387.0000	82.9898	-52.37
395.0000	82.2658	-48.62
400.0000	82.3240	-49.43
406.0000	82.7187	-49.75
412.0000	82.6405	-50.41
418.0000	82.7425	-49.04
425.0000	83.1961	-50.31
431.0000	83.2882	-51.20
437.0000	83.1342	-51.58
444.0000	83.0264	-51.65
450.0000	83.1450	-51.84
455.0000	83.3692	-51.20
462.0000	83.4692	-50.63
468.0000	83.4496	-50.69
475.0000	83.5347	-51.36
482.0000	83.5095	-51.48
487.0000	83.5921	-53.43
494.0000	83.6844	-52.81
500.0000	83.7442	-53.52
508.0000	83.8066	-52.53
515.0000	83.7841	-55.11
522.0000	83.8671	-51.96
530.0000	83.9161	-55.82
538.0000	83.7628	-53.40
545.0000	84.0659	-53.93
552.0000	84.1212	-55.99
560.0000	83.8287	-55.99
570.0000	83.9059	-54.96
580.0000	83.9838	-54.78
590.0000	84.0694	-55.27
600.0000	83.9998	-55.64
608.0000	83.9923	-55.55
615.0000	83.9752	-55.85
622.0000	83.9951	-56.36
630.0000	84.0530	-56.64
640.0000	84.0813	-56.18
650.0000	83.9950	-56.23
660.0000	84.0402	-56.47
670.0000	84.0125	-55.97
680.0000	84.0374	-56.23
690.0000	83.9692	-56.20
700.0000	83.9135	-55.68
710.0000	83.8854	-55.19
720.0000	83.9239	-54.47
730.0000	83.9433	-54.52
740.0000	83.9180	-54.55
750.0000	83.8832	-54.11
762.0000	83.9086	-53.79
775.0000	83.9098	-53.12
788.0000	83.8900	-52.57
800.0000	83.8782	-52.00
812.0000	83.8728	-51.35
825.0000	83.8762	-50.59
838.0000	83.8847	-49.84
850.0000	83.8897	-49.05
862.0000	83.9024	-48.36
875.0000	83.9232	-47.40
885.0000	83.9440	-46.67
900.0000	83.9820	-45.66
912.0000	84.0278	-44.78
925.0000	84.0767	-43.76
938.0000	84.1465	-42.73
950.0000	84.2201	-41.84
962.0000	84.3025	-40.88
975.0000	84.4173	-40.00
988.0000	84.5734	-39.11
1000.0000	84.7716	-38.52
1015.0000	84.8378	-38.41
1030.0000	84.9031	-38.35
1044.0000	84.9325	-38.11
1060.0000	84.9464	-37.56
1075.0000	84.9651	-36.76
1090.0000	85.0210	-35.94
1106.0000	85.0985	-35.03
1120.0000	85.1743	-34.29
1138.0000	85.2847	-33.35
1150.0000	85.3606	-32.78
1172.0000	85.4962	-31.82
1180.0000	85.5519	-31.45
1206.0000	85.7226	-30.45
1220.0000	85.8222	-29.94
1241.0000	85.9595	-29.17
1250.0000	86.0103	-28.90
1265.0000	86.1075	-28.44
1280.0000	86.1927	-27.93
1315.0000	86.3859	-26.90
1320.0000	86.4114	-26.75
1340.0000	86.5120	-26.21
1360.0000	86.6095	-25.67
1380.0000	86.6995	-25.03
1400.0000	86.7845	-24.44
1430.0000	86.9089	-23.52
1450.0000	86.9848	-22.88
1475.0000	87.0808	-22.10
1500.0000	87.1651	-21.27
1525.0000	87.2571	-20.45
1550.0000	87.3418	-19.56
1575.0000	87.4367	-18.75
1600.0000	87.5250	-17.81
1625.0000	87.6206	-16.91
1650.0000	87.7137	-16.00
1675.0000	87.8134	-15.09
1700.0000	87.9095	-14.17
1725.0000	88.0054	-13.28
1750.0000	88.1142	-12.38
1775.0000	88.2237	-11.52
1800.0000	88.3246	-10.65
1825.0000	88.4420	-9.84
1850.0000	88.5506	-9.07
1875.0000	88.6686	-8.31
1900.0000	88.7829	-7.62
1925.0000	88.9062	-6.95
1950.0000	89.0210	-6.35
1975.0000	89.1265	-5.85
2000.0000	89.1862	-5.64
2030.0000	89.3903	-4.83
2060.0000	89.5378	-4.31
2090.0000	89.6660	-4.00
2120.0000	89.7890	-3.82
2140.0000	89.8702	-3.73
2180.0000	90.0116	-3.68
2200.0000	90.0743	-3.72
2240.0000	90.1845	-4.09
2270.0000	90.2368	-4.71
2300.0000	90.2696	-5.55
2330.0000	90.2961	-6.54
2360.0000	90.2819	-7.49
2400.0000	90.2458	-8.61
2430.0000	90.2043	-9.21
2470.0000	90.0969	-9.85
2500.0000	89.9969	-10.33
2540.0000	89.8389	-10.76
2580.0000	89.6405	-11.21
2620.0000	89.4428	-11.48
2650.0000	89.2777	-11.64
2690.0000	89.0470	-11.65
2720.0000	88.8889	-11.54
2760.0000	88.6390	-11.29
2800.0000	88.4136	-11.00
2850.0000	88.1322	-10.22
2900.0000	87.8596	-9.61
2950.0000	87.6286	-8.65
3000.0000	87.4318	-7.39
3040.0000	87.3385	-6.72
3070.0000	87.2342	-6.38
3110.0000	87.1308	-5.44
3150.0000	87.0959	-4.65
3200.0000	87.0642	-3.85
3250.0000	87.0354	-3.14
3300.0000	87.1005	-2.89
3350.0000	87.1917	-2.23
3400.0000	87.3785	-2.13
3450.0000	87.5906	-2.18
3500.0000	87.8245	-2.49
3550.0000	88.1512	-3.62
3600.0000	88.5177	-4.21
3650.0000	88.9565	-5.93
3700.0000	89.3770	-7.96
3750.0000	89.8242	-10.11
3820.0000	90.4061	-13.84
3870.0000	90.8014	-17.60
3950.0000	91.3984	-23.21
4000.0000	91.6408	-27.42
4060.0000	91.8216	-31.96
4120.0000	91.9453	-36.19
4180.0000	92.0116	-40.34
4250.0000	92.0150	-44.14
4310.0000	91.9391	-46.03
4370.0000	91.9466	-48.22
4440.0000	91.8753	-50.27
4500.0000	91.8431	-50.72
4550.0000	91.7086	-51.28
4620.0000	91.8333	-51.36
4680.0000	91.7984	-51.45
4750.0000	91.8348	-50.69
4820.0000	91.9990	-49.93
4870.0000	92.1416	-48.64
4940.0000	92.2357	-46.31
5000.0000	92.6793	-44.96
5080.0000	93.0116	-43.26
5150.0000	93.2867	-41.81
5220.0000	93.7405	-41.54
5300.0000	94.1412	-40.02
5380.0000	94.6737	-39.36
5450.0000	95.1087	-38.86
5520.0000	95.6266	-38.90
5600.0000	95.9198	-39.06
5700.0000	96.4695	-39.28
5800.0000	96.6817	-41.55
5900.0000	97.0059	-44.99
6000.0000	96.7559	-47.22
6080.0000	96.5732	-48.66
6150.0000	96.2126	-47.90
6220.0000	95.8616	-47.48
6300.0000	95.8293	-47.20
6400.0000	95.4010	-45.32
6500.0000	94.5929	-42.90
6600.0000	94.5330	-39.58
6700.0000	94.1460	-36.40
6800.0000	93.8859	-31.13
6900.0000	93.5288	-28.55
7000.0000	93.2899	-21.71
7100.0000	93.3681	-16.62
7200.0000	93.3490	-13.14
7300.0000	93.8388	-7.91
7400.0000	93.8482	-4.73
7500.0000	94.1327	-0.64
7620.0000	94.6478	5.46
7750.0000	95.3602	11.57
7880.0000	95.9420	12.15
8000.0000	96.7829	13.29
8120.0000	97.7891	15.14
8250.0000	98.1662	6.10
8380.0000	98.1281	-2.89
8500.0000	97.5763	-8.44
8620.0000	95.2847	-14.43
8750.0000	93.5153	-15.11
8850.0000	92.7316	-15.05
9000.0000	90.4735	-12.64
9120.0000	88.2759	-2.37
9250.0000	86.8073	3.92
9380.0000	85.6382	9.04
9500.0000	85.0798	16.29
9620.0000	83.4551	29.58
9750.0000	82.4187	38.09
9880.0000	81.4214	42.82
10000.0000	81.2418	50.73
10150.0000	80.6748	68.34
10300.0000	80.1331	76.21
10440.0000	78.8256	84.77
10600.0000	78.3094	99.45
10750.0000	79.0463	109.52
10900.0000	78.9642	117.68
11060.0000	77.8467	126.45
11200.0000	77.8506	133.66
11380.0000	79.0064	145.19
11500.0000	78.3380	159.15
11720.0000	78.8293	161.30
11800.0000	80.2340	160.35
12060.0000	80.1232	159.98
12200.0000	78.4861	141.02
12410.0000	75.8533	131.50
12500.0000	72.3479	135.28
12650.0000	68.9498	152.42
12800.0000	65.1089	171.63
13150.0000	63.8874	-91.00
13200.0000	65.1676	-100.98
13400.0000	69.1512	-73.80
13600.0000	69.7794	-71.06
13800.0000	71.0730	-63.28
14000.0000	73.6774	-57.01
14300.0000	72.2894	-34.92
14500.0000	72.4401	-21.45
14750.0000	76.8847	-30.06
15000.0000	77.6869	-27.37
15250.0000	81.3144	-15.13
15500.0000	81.4967	-48.83
15750.0000	80.7888	-51.16
16000.0000	73.4785	-47.55
16250.0000	72.2192	-39.96
16500.0000	72.5250	-63.00
16750.0000	69.6161	-18.72
17000.0000	67.9627	-11.31
17250.0000	69.3056	-37.86
17500.0000	65.7191	8.56
17750.0000	65.3006	14.85
18000.0000	70.1959	-27.51
18250.0000	67.9968	15.05
18500.0000	69.9173	10.58
18750.0000	67.5602	-47.91
19000.0000	74.5905	-37.60
19250.0000	73.0858	-75.06
19500.0000	71.2655	-72.88
19750.0000	65.9271	-42.37
