* Measurement data measured by REW V5.20 Beta 60
* Source: Headset (USB-C to 3.5mm Headphone Jack Adapter), MICROPHONE (Master Volume), R, volume: 0.258
* Format: 256k Log Swept Sine, 1 sweep at -12.0 dBFS with no timing reference
* Dated: Jan 27, 2021 8:06:28 PM
* REW Settings:
*  C-weighting compensation: Off
*  Target level: 75.0 dB
* Note: ; 
* Measurement: Acoustune HS1300SS L
* Smoothing: None
* Frequency Step: 1/48 octave
* Start Frequency: 20.000 Hz
*
* Freq(Hz)	SPL(dB)	Phase(degrees)
20.000000	87.664032	-157.1426
20.299999	87.702728	-157.6403
20.600000	87.732964	-158.1208
20.900000	87.752899	-158.5553
21.200001	87.768684	-158.9303
21.400000	87.778168	-159.1331
21.799999	87.801788	-159.4333
22.000000	87.820129	-159.5560
22.400000	87.876343	-159.8410
22.700001	87.926483	-160.1183
23.000000	87.975029	-160.4812
23.299999	88.015800	-160.9200
23.600000	88.042282	-161.3792
24.000000	88.055084	-161.9345
24.299999	88.057358	-162.2631
24.700001	88.065224	-162.5744
25.000000	88.082565	-162.7638
25.400000	88.124016	-163.0693
25.799999	88.169601	-163.4902
26.200001	88.203384	-164.0199
26.500000	88.216537	-164.4303
26.900000	88.219635	-164.8975
27.200001	88.220985	-165.1702
27.600000	88.233948	-165.4622
28.000000	88.260239	-165.7648
28.500000	88.299995	-166.2810
29.000000	88.322304	-166.8849
29.500000	88.325256	-167.4377
30.000000	88.322792	-167.8449
30.400000	88.330170	-168.1214
30.700001	88.340034	-168.3293
31.100000	88.353889	-168.6381
31.500000	88.363792	-168.9723
32.000000	88.368156	-169.3472
32.500000	88.375946	-169.6630
33.000000	88.392761	-169.9699
33.500000	88.411591	-170.3494
34.000000	88.418800	-170.7745
34.500000	88.417839	-171.1722
35.000000	88.414612	-171.4853
35.500000	88.420334	-171.7611
36.000000	88.432632	-172.0643
36.500000	88.442413	-172.4269
37.000000	88.445045	-172.7886
37.500000	88.446678	-173.1164
38.200001	88.452209	-173.5448
38.700001	88.456154	-173.8739
39.500000	88.455826	-174.3928
40.000000	88.450882	-174.6754
40.599998	88.443024	-174.9879
41.200001	88.438110	-175.2697
41.799999	88.438637	-175.5546
42.500000	88.437813	-175.9342
43.099998	88.429451	-176.2840
43.700001	88.417572	-176.6013
44.400002	88.409149	-176.9599
45.000000	88.402534	-177.3261
45.500000	88.387039	-177.6412
46.200001	88.354935	-177.9199
46.799999	88.349564	-178.0192
47.500000	88.375381	-178.2855
48.200001	88.378235	-178.7476
48.700001	88.359459	-178.9969
49.400002	88.348610	-179.1337
50.000000	88.361267	-179.3229
50.799999	88.357254	-179.8087
51.500000	88.326729	179.9377
52.200001	88.312836	179.7787
53.000000	88.300400	179.4639
53.799999	88.273933	179.1678
54.500000	88.253471	178.9140
55.200001	88.229309	178.6462
56.000000	88.208282	178.4091
57.000000	88.191833	177.9709
58.000000	88.155930	177.6496
59.000000	88.154083	177.3153
60.000000	88.116051	176.9418
60.799999	88.102196	176.8927
61.500000	88.114311	176.6611
62.200001	88.093155	176.3066
63.000000	88.049866	176.1243
64.000000	88.023369	175.9081
65.000000	87.978981	175.6245
66.000000	87.941223	175.4296
67.000000	87.911423	175.1559
68.000000	87.883186	174.8637
69.000000	87.854736	174.5240
70.000000	87.813873	174.2707
71.000000	87.786667	174.1013
72.000000	87.756912	173.9246
73.000000	87.735123	173.8797
74.000000	87.738350	173.6803
75.000000	87.704033	173.3549
76.199997	87.665543	173.2173
77.500000	87.631332	172.9401
78.800003	87.597786	172.7176
80.000000	87.552299	172.4947
81.199997	87.529572	172.3571
82.500000	87.479683	172.0707
83.800003	87.443489	171.9383
85.000000	87.401001	171.8843
86.199997	87.394379	171.7053
87.500000	87.322678	171.5316
88.500000	87.295692	171.3900
90.000000	87.179443	171.4266
91.199997	87.212593	171.3428
92.500000	87.155983	170.7514
93.800003	87.127029	170.6254
95.000000	87.107391	170.4362
96.199997	87.065353	170.4680
97.500000	87.054535	170.4927
98.800003	86.962265	170.2579
100.000000	86.905144	170.2541
101.500000	86.870651	169.8352
103.000000	86.768753	169.7268
104.400002	86.921532	169.6561
106.000000	86.730835	170.1284
107.500000	86.779114	169.6371
109.000000	86.626022	169.4560
110.599998	86.460236	170.3645
112.000000	86.827568	166.7158
113.800003	86.377068	173.1920
115.000000	87.345650	170.9868
117.199997	86.770355	175.7479
118.000000	86.997650	175.2294
120.599998	86.837280	173.3371
122.000000	86.108841	169.2264
124.099998	86.037132	169.2360
125.000000	86.173363	169.1870
126.500000	86.257805	167.8980
128.000000	86.252953	168.7602
131.500000	85.898338	168.9780
132.000000	85.864761	169.2119
134.000000	85.853722	168.6450
136.000000	85.863228	168.8709
138.000000	85.773621	169.4847
140.000000	85.676720	169.5930
143.000000	85.626991	169.6415
145.000000	85.657791	169.4507
147.500000	85.641624	169.7416
150.000000	85.572250	169.9108
152.500000	85.468590	169.8147
155.000000	85.381203	169.7943
157.500000	85.344742	169.7094
160.000000	85.321373	169.6871
162.500000	85.270866	170.0530
165.000000	85.184669	170.3041
167.500000	85.119843	170.2200
170.000000	85.101227	170.2903
172.500000	85.019279	170.5958
175.000000	84.932846	170.6070
177.500000	84.872940	170.7173
180.000000	84.809097	171.0001
182.500000	84.740005	171.0594
185.000000	84.714111	171.4496
187.500000	84.630966	171.5515
190.000000	84.569122	171.8310
192.500000	84.527344	172.1528
195.000000	84.475830	171.9531
197.500000	84.335663	172.7343
200.000000	84.390579	173.1819
203.000000	84.169434	172.3730
206.000000	83.962769	173.6682
209.000000	84.195396	172.6682
212.000000	84.225288	171.4178
214.000000	84.039711	173.7084
218.000000	83.729958	176.5866
220.000000	83.824829	175.1536
224.000000	84.144333	172.1891
227.000000	83.587456	175.4086
230.000000	83.704437	173.3625
233.000000	83.986145	175.8079
236.000000	83.324448	178.5525
240.000000	83.570694	175.1104
243.000000	83.705803	177.9735
247.000000	83.548698	174.1697
250.000000	83.253365	178.4003
254.000000	83.481743	176.4726
258.000000	83.383392	179.1655
262.000000	83.443161	177.8812
265.000000	83.298103	178.4496
269.000000	83.254745	178.6176
272.000000	83.174294	178.8487
276.000000	83.026726	179.4289
280.000000	83.003540	-179.8602
285.000000	82.944077	-179.0480
290.000000	82.874680	-178.2318
295.000000	82.781082	-177.9861
300.000000	82.836319	-176.6801
304.000000	82.614792	-176.5871
307.000000	82.740936	-176.5475
311.000000	82.632637	-176.2334
315.000000	82.560547	-176.2278
320.000000	82.593842	-175.4032
325.000000	82.504463	-174.7345
330.000000	82.531601	-173.9646
335.000000	82.589317	-172.7414
340.000000	82.709137	-172.2822
345.000000	81.898224	-169.3461
350.000000	82.325066	-171.7513
355.000000	82.330376	-170.9268
360.000000	81.787712	-172.3556
365.000000	82.839783	-172.8472
370.000000	82.677628	-165.4343
375.000000	82.189926	-166.5238
382.000000	81.606453	-170.8663
387.000000	82.212112	-171.1917
395.000000	82.270111	-166.3860
400.000000	81.902130	-166.1807
406.000000	81.867058	-165.8529
412.000000	81.910789	-165.7632
418.000000	81.950912	-164.9824
425.000000	81.879303	-164.1805
431.000000	81.832123	-162.8476
437.000000	81.830338	-162.5030
444.000000	81.722527	-161.1385
450.000000	81.662498	-161.4521
455.000000	81.713486	-161.0039
462.000000	81.792076	-159.9733
468.000000	81.660713	-159.1162
475.000000	81.654465	-158.5123
482.000000	81.669975	-157.8374
487.000000	81.551208	-157.3891
494.000000	81.667786	-156.5162
500.000000	81.608925	-156.2153
508.000000	81.623810	-155.3488
515.000000	81.521683	-154.4181
522.000000	81.396210	-153.7980
530.000000	81.341148	-150.9318
538.000000	81.499741	-151.1186
545.000000	81.401314	-151.3060
552.000000	81.480789	-150.2630
560.000000	81.389221	-149.5653
570.000000	81.410767	-148.3327
580.000000	81.378143	-147.3824
590.000000	81.367165	-146.5082
600.000000	81.317757	-145.5385
608.000000	81.348618	-144.3255
615.000000	81.297295	-144.2131
622.000000	81.256958	-143.5916
630.000000	81.483047	-140.3244
640.000000	81.436401	-138.7723
650.000000	81.061684	-142.2484
660.000000	81.082397	-135.0699
670.000000	81.204041	-137.5614
680.000000	81.313347	-137.1954
690.000000	81.357124	-135.9327
700.000000	81.387276	-134.9773
710.000000	81.375824	-133.9249
720.000000	81.361366	-132.7958
730.000000	81.405411	-131.7616
740.000000	81.411537	-130.7896
750.000000	81.420341	-129.8765
762.000000	81.310760	-128.8968
775.000000	81.523392	-127.1591
788.000000	81.532967	-125.9828
800.000000	81.490189	-124.7238
812.000000	81.547508	-123.3280
825.000000	81.594170	-122.1297
838.000000	81.642700	-120.6563
850.000000	81.660385	-119.6677
862.000000	81.736084	-118.4638
875.000000	81.848701	-117.2164
885.000000	81.984596	-116.2017
900.000000	81.891235	-115.3365
912.000000	81.908630	-113.3589
925.000000	82.008888	-112.3394
938.000000	82.110596	-111.1182
950.000000	82.191925	-109.9376
962.000000	82.262505	-108.9727
975.000000	82.339905	-107.6967
988.000000	82.436241	-106.6025
1000.000000	82.601440	-105.4698
1015.000000	82.627350	-104.5761
1030.000000	82.686493	-103.2849
1044.000000	82.781746	-102.1017
1060.000000	82.905334	-101.0005
1075.000000	83.006454	-99.8353
1090.000000	83.124374	-98.7937
1106.000000	83.255653	-97.7024
1120.000000	83.372803	-96.8194
1138.000000	83.526169	-95.6385
1150.000000	83.626167	-94.9556
1172.000000	83.814026	-93.6984
1180.000000	83.879723	-93.1948
1206.000000	84.097916	-91.9610
1220.000000	84.211746	-91.2231
1241.000000	84.389252	-90.2744
1250.000000	84.478928	-89.9498
1265.000000	84.601418	-89.2902
1280.000000	84.701271	-88.7201
1315.000000	84.962288	-87.3868
1320.000000	85.008194	-87.2208
1340.000000	85.149910	-86.4093
1360.000000	85.292419	-85.7051
1380.000000	85.412773	-84.9764
1400.000000	85.554825	-84.2858
1430.000000	85.740204	-83.1613
1450.000000	85.864914	-82.3167
1475.000000	86.029205	-81.3416
1500.000000	86.198059	-80.4514
1525.000000	86.360092	-79.5308
1550.000000	86.533524	-78.5678
1575.000000	86.716461	-77.7519
1600.000000	86.895477	-76.8848
1625.000000	87.082092	-76.0619
1650.000000	87.265839	-75.3417
1675.000000	87.463890	-74.5734
1700.000000	87.649162	-73.9106
1725.000000	87.843903	-73.3133
1750.000000	88.032417	-72.7762
1775.000000	88.225548	-72.2853
1800.000000	88.420013	-71.8277
1825.000000	88.607582	-71.4767
1850.000000	88.788757	-71.1803
1875.000000	88.985748	-70.9047
1900.000000	89.164833	-70.7324
1925.000000	89.344421	-70.6361
1950.000000	89.512627	-70.6245
1975.000000	89.667114	-70.7004
2000.000000	89.763214	-71.0784
2030.000000	90.018433	-70.9759
2060.000000	90.197052	-71.2073
2090.000000	90.353432	-71.6080
2120.000000	90.490112	-72.0934
2140.000000	90.577057	-72.4221
2180.000000	90.708916	-73.1893
2200.000000	90.771896	-73.5749
2240.000000	90.849960	-74.5455
2270.000000	90.890312	-75.6282
2300.000000	90.895653	-76.8628
2330.000000	90.881027	-78.0933
2360.000000	90.871742	-79.1268
2400.000000	90.787125	-80.3678
2430.000000	90.736710	-80.9593
2470.000000	90.612503	-81.5613
2500.000000	90.502235	-81.8461
2540.000000	90.354851	-82.1014
2580.000000	90.182495	-82.2341
2620.000000	89.983047	-82.1756
2650.000000	89.848259	-82.0263
2690.000000	89.658478	-81.7599
2720.000000	89.517075	-81.3927
2760.000000	89.314056	-80.8353
2800.000000	89.094978	-80.0501
2850.000000	88.831833	-78.9307
2900.000000	88.606461	-77.7557
2950.000000	88.371170	-76.3997
3000.000000	88.158165	-74.5181
3040.000000	87.993912	-73.5320
3070.000000	87.876747	-72.6236
3110.000000	87.726601	-71.1982
3150.000000	87.586784	-69.7764
3200.000000	87.412827	-67.9563
3250.000000	87.270126	-66.0665
3300.000000	87.132660	-64.0981
3350.000000	87.004066	-62.0344
3400.000000	86.898041	-60.0754
3450.000000	86.807678	-57.9304
3500.000000	86.743881	-55.9430
3550.000000	86.696007	-53.8758
3600.000000	86.650070	-51.8103
3650.000000	86.617363	-49.6491
3700.000000	86.594582	-47.4814
3750.000000	86.587875	-45.2626
3820.000000	86.581367	-42.0406
3870.000000	86.621582	-39.7703
3950.000000	86.687164	-36.1904
4000.000000	86.724518	-34.1837
4060.000000	86.861267	-31.5044
4120.000000	86.970413	-28.9958
4180.000000	87.092209	-26.5051
4250.000000	87.293106	-23.5107
4310.000000	87.483612	-21.1475
4370.000000	87.718506	-18.9883
4440.000000	88.030136	-16.7382
4500.000000	88.295807	-14.9847
4550.000000	88.523102	-13.6203
4620.000000	88.852554	-11.9890
4680.000000	89.142731	-10.6510
4750.000000	89.480316	-9.3442
4820.000000	89.838852	-8.1923
4870.000000	90.090691	-7.4580
4940.000000	90.461563	-6.6112
5000.000000	90.808540	-6.0149
5080.000000	91.341881	-5.1063
5150.000000	91.873367	-4.9860
5220.000000	92.451965	-5.6246
5300.000000	93.132202	-7.6645
5380.000000	93.735413	-11.0599
5450.000000	94.115059	-15.1925
5520.000000	94.285019	-20.0030
5600.000000	94.218140	-25.8134
5700.000000	93.751129	-32.5425
5800.000000	92.975121	-37.6103
5900.000000	92.047699	-40.7286
6000.000000	91.071869	-42.0156
6080.000000	90.338257	-41.9131
6150.000000	89.746201	-41.2364
6220.000000	89.184303	-40.0296
6300.000000	88.615997	-38.3319
6400.000000	87.984795	-35.5833
6500.000000	87.450569	-32.3344
6600.000000	87.000717	-28.8832
6700.000000	86.656418	-25.0448
6800.000000	86.404129	-21.1051
6900.000000	86.260445	-17.1334
7000.000000	86.229401	-13.0921
7100.000000	86.314835	-9.1456
7200.000000	86.485306	-5.3014
7300.000000	86.777100	-1.7038
7400.000000	87.171509	1.5951
7500.000000	87.669548	4.3117
7620.000000	88.430229	6.8649
7750.000000	89.442772	8.0066
7880.000000	90.650726	6.4361
8000.000000	91.842690	1.0344
8120.000000	92.760559	-9.1019
8250.000000	92.831596	-24.6422
8380.000000	91.590355	-38.9163
8500.000000	89.865761	-47.2581
8620.000000	88.024452	-51.1533
8750.000000	86.102966	-52.0492
8850.000000	84.751938	-51.2220
9000.000000	82.884903	-48.2024
9120.000000	81.575516	-44.6947
9250.000000	80.295143	-40.3420
9380.000000	79.135681	-35.3033
9500.000000	78.146713	-30.3190
9620.000000	77.312813	-25.0678
9750.000000	76.465591	-19.1802
9880.000000	75.691521	-12.8490
10000.000000	75.135078	-7.3303
10150.000000	74.470184	0.2899
10300.000000	74.013374	7.7515
10440.000000	73.488876	15.0621
10600.000000	73.196129	23.5006
10750.000000	73.068596	31.2108
10900.000000	73.019737	39.5214
11060.000000	73.206757	47.4676
11200.000000	73.489136	54.3325
11380.000000	74.035347	61.8945
11500.000000	74.451324	66.3953
11720.000000	75.413353	72.8277
11800.000000	75.758759	75.5444
12060.000000	77.122742	81.6717
12200.000000	77.846130	84.3284
12410.000000	79.428467	88.0466
12500.000000	80.180450	88.9491
12650.000000	81.651367	89.3749
12800.000000	83.391464	87.5609
13150.000000	87.728363	64.8403
13200.000000	88.097847	58.6321
13400.000000	87.849754	32.4845
13600.000000	85.813583	16.1472
13800.000000	83.750893	9.6849
14000.000000	82.173485	8.1831
14300.000000	80.651764	9.9564
14500.000000	80.153107	11.9552
14750.000000	80.029091	14.4752
15000.000000	80.411888	15.9083
15250.000000	81.473106	14.7492
15500.000000	83.078400	9.0900
15750.000000	84.937775	-5.6847
16000.000000	85.864166	-32.2856
16250.000000	84.477684	-59.6092
16500.000000	82.224403	-77.0542
16750.000000	80.365608	-88.8756
17000.000000	79.232056	-99.7119
17250.000000	78.560860	-114.1234
17500.000000	77.692322	-134.7542
17750.000000	75.812729	-160.7764
18000.000000	72.644814	172.7258
18250.000000	69.184669	152.8344
18500.000000	65.918480	135.9589
18750.000000	63.025436	124.4065
19000.000000	60.320465	115.0627
19250.000000	58.360470	106.3485
19500.000000	56.564415	90.4049
19750.000000	54.775478	77.5123
