* Measurement data measured by REW V5.20 Beta 60
* Source: Headset (USB-C to 3.5mm Headphone Jack Adapter), MICROPHONE (Master Volume), R, volume: 0.000
* Format: 256k Log Swept Sine, 1 sweep at -12.0 dBFS with no timing reference
* Dated: Oct 25, 2020 4:41:59 PM
* REW Settings:
*  C-weighting compensation: Off
*  Target level: 75.0 dB
* Note: ; 
* Measurement: Auglamour T200 R
* Smoothing: None
* Frequency Step: 1/48 octave
* Start Frequency: 20.000 Hz
*
* Freq(Hz)	SPL(dB)	Phase(degrees)
20.000000	77.504723	-128.8343
20.299999	77.587166	-128.6940
20.600000	77.700348	-128.5414
20.900000	77.837158	-128.4887
21.200001	77.988327	-128.6305
21.400000	78.086624	-128.8398
21.799999	78.263870	-129.4964
22.000000	78.337730	-129.9229
22.400000	78.451241	-130.9206
22.700001	78.500351	-131.6934
23.000000	78.521103	-132.4151
23.299999	78.521912	-133.0415
23.600000	78.508469	-133.5224
24.000000	78.483849	-133.8889
24.299999	78.479012	-133.9534
24.700001	78.516708	-133.8030
25.000000	78.595428	-133.6361
25.400000	78.777649	-133.6292
25.799999	79.012390	-134.2009
26.200001	79.226547	-135.5163
26.500000	79.324081	-136.8463
26.900000	79.331154	-138.6255
27.200001	79.254440	-139.5677
27.600000	79.108032	-139.8757
28.000000	79.029617	-139.0875
28.500000	79.161659	-137.5989
29.000000	79.476631	-137.0148
29.500000	79.783798	-137.6486
30.000000	79.980247	-138.8089
30.400000	80.076157	-139.8081
30.700001	80.120529	-140.6145
31.100000	80.122391	-141.8230
31.500000	80.023788	-142.9867
32.000000	79.758598	-143.5394
32.500000	79.515289	-142.2963
33.000000	79.571487	-140.1104
33.500000	79.933258	-139.2442
34.000000	80.287926	-140.7141
34.500000	80.383720	-143.3175
35.000000	80.226166	-145.2429
35.500000	80.041298	-145.5764
36.000000	80.033348	-145.1342
36.500000	80.166115	-145.2812
37.000000	80.258957	-146.1766
37.500000	80.247032	-146.9218
38.200001	80.245117	-146.7439
38.700001	80.368332	-146.4838
39.500000	80.580055	-147.2197
40.000000	80.616951	-147.7798
40.599998	80.631699	-148.0009
41.200001	80.679352	-148.1368
41.799999	80.706451	-148.4198
42.500000	80.711548	-148.3975
43.099998	80.800957	-148.2920
43.700001	80.932961	-148.9521
44.400002	80.967255	-150.5378
45.000000	80.864792	-151.6993
45.500000	80.738899	-152.2170
46.200001	80.545052	-152.1370
46.799999	80.428108	-151.0220
47.500000	80.561768	-148.8015
48.200001	81.075142	-147.8073
48.700001	81.500008	-149.1074
49.400002	81.757286	-153.2447
50.000000	81.473022	-156.2423
50.799999	80.969383	-154.8794
51.500000	81.314835	-152.3982
52.200001	81.766525	-154.8242
53.000000	81.404785	-158.2675
53.799999	80.984161	-155.6779
54.500000	81.274002	-153.7251
55.200001	81.461067	-154.5398
56.000000	81.436050	-154.5776
57.000000	81.597473	-154.9659
58.000000	81.475258	-155.8892
59.000000	81.480095	-155.7321
60.000000	81.383942	-156.6341
60.799999	81.274803	-156.0988
61.500000	81.326378	-155.5963
62.200001	81.419388	-155.5304
63.000000	81.555809	-155.9866
64.000000	81.562500	-157.4387
65.000000	81.444916	-157.2980
66.000000	81.547997	-157.1573
67.000000	81.536064	-157.8524
68.000000	81.493179	-157.6357
69.000000	81.572929	-157.7237
70.000000	81.542969	-158.4764
71.000000	81.491524	-158.1774
72.000000	81.591690	-158.6767
73.000000	81.492622	-159.2472
74.000000	81.596153	-159.1002
75.000000	81.521378	-160.8267
76.199997	81.409340	-158.5303
77.500000	81.892921	-160.3205
78.800003	81.652382	-161.0322
80.000000	81.686882	-160.7570
81.199997	81.716545	-160.1810
82.500000	81.650429	-161.0415
83.800003	81.655281	-160.0517
85.000000	81.587013	-161.8551
86.199997	81.417015	-160.7288
87.500000	81.668900	-161.4236
88.500000	81.638557	-162.7466
90.000000	81.559814	-162.4586
91.199997	81.674957	-162.7617
92.500000	81.676399	-162.6631
93.800003	81.696342	-163.5353
95.000000	81.575127	-163.0422
96.199997	81.622627	-162.8863
97.500000	81.720367	-163.1140
98.800003	81.623772	-163.8986
100.000000	81.661331	-163.5892
101.500000	81.631172	-163.1718
103.000000	81.801758	-164.0329
104.400002	81.718826	-163.8498
106.000000	81.791855	-163.9454
107.500000	81.826088	-165.0431
109.000000	81.771423	-165.2230
110.599998	81.623405	-165.9887
112.000000	81.625595	-165.0434
113.800003	81.836510	-165.7933
115.000000	81.586853	-166.5277
117.199997	81.713608	-166.0105
118.000000	81.548965	-165.3242
120.599998	81.634209	-164.6582
122.000000	81.791962	-164.7453
124.099998	81.589516	-165.3576
125.000000	81.605927	-165.0207
126.500000	81.652802	-165.4780
128.000000	81.627930	-165.9027
131.500000	81.812553	-164.6165
132.000000	81.959099	-165.6015
134.000000	81.477036	-166.5308
136.000000	81.790840	-166.6049
138.000000	81.372177	-167.0203
140.000000	81.585739	-166.7919
143.000000	81.601974	-166.3390
145.000000	81.602699	-166.6995
147.500000	81.621445	-166.6631
150.000000	81.631111	-165.0824
152.500000	81.651367	-166.8527
155.000000	81.456345	-167.3842
157.500000	81.433174	-167.3037
160.000000	81.437302	-166.8261
162.500000	81.447754	-166.7953
165.000000	81.435623	-167.2289
167.500000	81.445358	-166.3994
170.000000	81.407837	-167.0678
172.500000	81.340378	-167.4397
175.000000	81.358322	-167.8127
177.500000	81.343163	-167.6333
180.000000	81.423828	-166.9881
182.500000	81.416168	-167.0365
185.000000	81.267128	-167.4133
187.500000	81.323257	-167.5024
190.000000	81.249672	-167.0486
192.500000	81.175201	-167.2269
195.000000	81.190201	-167.0961
197.500000	81.155273	-167.2303
200.000000	81.095390	-167.3004
203.000000	81.023636	-167.0034
206.000000	81.032578	-167.1796
209.000000	81.047798	-167.2318
212.000000	81.013435	-166.7348
214.000000	80.948486	-166.5446
218.000000	80.958420	-166.3311
220.000000	80.943771	-166.5236
224.000000	80.903931	-166.2740
227.000000	80.863258	-165.7276
230.000000	80.855377	-165.6924
233.000000	80.857773	-165.8110
236.000000	80.847046	-165.7412
240.000000	80.776733	-165.6898
243.000000	80.754639	-165.6515
247.000000	80.752304	-165.0812
250.000000	80.713974	-165.0407
254.000000	80.685959	-164.9374
258.000000	80.633423	-164.9002
262.000000	80.672836	-164.6144
265.000000	80.635910	-164.3904
269.000000	80.589050	-164.4804
272.000000	80.567810	-164.4434
276.000000	80.472710	-163.6193
280.000000	80.481186	-163.5687
285.000000	80.436348	-163.3798
290.000000	80.423363	-163.0651
295.000000	80.330734	-162.7078
300.000000	80.362854	-162.8339
304.000000	80.360710	-161.0698
307.000000	80.277084	-161.5838
311.000000	80.186203	-161.9251
315.000000	80.324455	-161.6659
320.000000	80.172241	-160.9075
325.000000	80.208168	-160.4847
330.000000	80.119461	-159.7823
335.000000	80.058418	-159.5337
340.000000	79.988968	-159.2104
345.000000	80.040016	-159.1817
350.000000	79.983238	-158.8054
355.000000	79.957024	-157.8226
360.000000	79.875427	-157.6463
365.000000	79.874870	-157.3910
370.000000	79.852097	-157.2034
375.000000	79.793503	-156.5114
382.000000	79.786201	-155.9510
387.000000	79.736511	-155.4828
395.000000	79.678490	-155.0382
400.000000	79.672928	-154.5405
406.000000	79.605881	-153.9379
412.000000	79.614067	-153.3741
418.000000	79.579994	-152.9626
425.000000	79.565224	-152.1937
431.000000	79.505478	-151.5393
437.000000	79.506386	-151.2552
444.000000	79.475281	-150.5708
450.000000	79.410667	-150.0095
455.000000	79.450439	-149.5937
462.000000	79.404449	-148.8274
468.000000	79.381371	-148.5334
475.000000	79.375847	-148.0049
482.000000	79.301186	-147.3302
487.000000	79.322372	-146.9790
494.000000	79.283836	-146.4495
500.000000	79.274712	-145.7333
508.000000	79.267021	-144.6707
515.000000	79.203285	-144.2061
522.000000	79.217461	-143.5888
530.000000	79.194656	-142.9558
538.000000	79.153015	-142.0732
545.000000	79.138039	-141.3624
552.000000	79.128708	-140.6192
560.000000	79.075806	-139.9490
570.000000	79.089722	-138.9067
580.000000	79.022057	-137.7373
590.000000	78.995361	-136.8513
600.000000	78.988106	-135.8043
608.000000	79.020302	-135.0928
615.000000	78.961746	-134.3400
622.000000	79.003281	-133.5583
630.000000	78.936852	-132.7283
640.000000	78.938469	-131.7534
650.000000	78.949287	-130.6127
660.000000	78.927788	-129.7701
670.000000	78.923294	-128.7363
680.000000	78.935966	-127.7601
690.000000	78.921295	-126.5867
700.000000	78.931602	-125.3512
710.000000	78.936005	-124.3245
720.000000	78.920418	-123.1774
730.000000	78.946480	-122.1620
740.000000	78.918388	-120.9528
750.000000	78.944763	-119.9858
762.000000	78.937447	-118.5793
775.000000	78.954704	-117.0984
788.000000	78.965759	-115.7009
800.000000	78.960632	-114.2670
812.000000	78.996468	-112.8175
825.000000	79.020027	-111.3003
838.000000	79.048141	-109.4544
850.000000	79.189674	-108.0769
862.000000	79.255371	-107.1814
875.000000	79.268860	-105.7986
885.000000	79.311813	-104.6991
900.000000	79.366127	-103.1223
912.000000	79.449219	-101.7176
925.000000	79.511116	-100.4285
938.000000	79.593513	-99.1326
950.000000	79.665016	-97.5580
962.000000	79.747032	-96.4946
975.000000	79.825066	-95.2052
988.000000	79.910683	-93.8262
1000.000000	80.037186	-92.3345
1015.000000	80.045288	-90.8447
1030.000000	80.181656	-89.1813
1044.000000	80.302170	-87.7863
1060.000000	80.472641	-86.2823
1075.000000	80.624229	-84.8593
1090.000000	80.793518	-83.6410
1106.000000	80.973213	-82.3335
1120.000000	81.125862	-81.3982
1138.000000	81.322891	-80.0991
1150.000000	81.456497	-79.2737
1172.000000	81.693298	-77.8625
1180.000000	81.768875	-77.5036
1206.000000	82.044586	-76.0224
1220.000000	82.193466	-75.2636
1241.000000	82.415253	-74.3208
1250.000000	82.499001	-73.8521
1265.000000	82.649605	-73.2377
1280.000000	82.807404	-72.5157
1315.000000	83.121399	-71.1752
1320.000000	83.164474	-70.9302
1340.000000	83.330772	-70.1434
1360.000000	83.501564	-69.3923
1380.000000	83.655899	-68.6422
1400.000000	83.808029	-67.8659
1430.000000	84.032951	-66.6654
1450.000000	84.169594	-65.9364
1475.000000	84.345078	-65.0067
1500.000000	84.515167	-63.9816
1525.000000	84.673157	-62.9418
1550.000000	84.843689	-62.0175
1575.000000	85.002548	-60.9904
1600.000000	85.182449	-59.9182
1625.000000	85.341393	-58.8868
1650.000000	85.513885	-57.8617
1675.000000	85.684753	-56.7661
1700.000000	85.856186	-55.6799
1725.000000	86.030167	-54.6047
1750.000000	86.212921	-53.5370
1775.000000	86.396255	-52.4462
1800.000000	86.578949	-51.3661
1825.000000	86.764542	-50.3267
1850.000000	86.959381	-49.2483
1875.000000	87.156929	-48.2099
1900.000000	87.348801	-47.2021
1925.000000	87.560867	-46.1794
1950.000000	87.768791	-45.1762
1975.000000	87.968193	-44.2396
2000.000000	88.124039	-43.5356
2030.000000	88.463287	-42.0964
2060.000000	88.753601	-40.9636
2090.000000	89.048286	-39.9036
2120.000000	89.351128	-38.9045
2140.000000	89.563828	-38.2823
2180.000000	89.994217	-37.1568
2200.000000	90.218437	-36.6631
2240.000000	90.681549	-36.0919
2270.000000	91.018745	-35.9914
2300.000000	91.362038	-36.2139
2330.000000	91.716034	-36.5445
2360.000000	92.066528	-37.0455
2400.000000	92.542755	-37.7199
2430.000000	92.906105	-38.1812
2470.000000	93.370728	-38.8607
2500.000000	93.712158	-39.6208
2540.000000	94.155144	-40.8861
2580.000000	94.575630	-42.5192
2620.000000	94.968300	-44.4663
2650.000000	95.236214	-46.1634
2690.000000	95.554047	-48.7156
2720.000000	95.758682	-50.7982
2760.000000	95.962563	-53.7928
2800.000000	96.089180	-56.9422
2850.000000	96.138786	-60.9674
2900.000000	96.068863	-64.9153
2950.000000	95.895638	-68.5707
3000.000000	95.628967	-71.5027
3040.000000	95.361191	-74.0559
3070.000000	95.134911	-75.5726
3110.000000	94.811485	-77.2646
3150.000000	94.475365	-78.5967
3200.000000	94.051720	-79.7908
3250.000000	93.630600	-80.6092
3300.000000	93.223389	-81.0336
3350.000000	92.835197	-81.2276
3400.000000	92.469337	-81.2288
3450.000000	92.132851	-81.0984
3500.000000	91.800430	-80.8906
3550.000000	91.475975	-80.5280
3600.000000	91.148834	-79.9642
3650.000000	90.830467	-79.2024
3700.000000	90.520218	-78.3184
3750.000000	90.224022	-77.1835
3820.000000	89.849243	-75.3182
3870.000000	89.611740	-73.8504
3950.000000	89.277016	-71.6091
4000.000000	89.063675	-70.4110
4060.000000	88.870850	-68.5553
4120.000000	88.664238	-66.9272
4180.000000	88.479668	-65.2469
4250.000000	88.283356	-63.1847
4310.000000	88.118889	-61.5812
4370.000000	87.971519	-59.9091
4440.000000	87.794571	-57.9098
4500.000000	87.659042	-56.2453
4550.000000	87.552582	-54.8710
4620.000000	87.410423	-52.8365
4680.000000	87.286499	-51.0581
4750.000000	87.151764	-48.9997
4820.000000	87.045509	-46.8965
4870.000000	86.982895	-45.3914
4940.000000	86.894768	-43.2659
5000.000000	86.827003	-41.4623
5080.000000	86.774094	-38.7534
5150.000000	86.748886	-36.4633
5220.000000	86.738274	-34.2317
5300.000000	86.756470	-31.6453
5380.000000	86.807411	-29.1497
5450.000000	86.862564	-26.9828
5520.000000	86.914566	-24.9257
5600.000000	86.996895	-22.6517
5700.000000	87.153236	-19.9969
5800.000000	87.365196	-17.6638
5900.000000	87.636086	-15.7673
6000.000000	87.942314	-14.5938
6080.000000	88.218948	-14.1853
6150.000000	88.446991	-14.3418
6220.000000	88.655968	-14.9740
6300.000000	88.825172	-16.2585
6400.000000	88.894455	-18.2936
6500.000000	88.782120	-20.4503
6600.000000	88.503510	-22.0837
6700.000000	88.136353	-23.0265
6800.000000	87.725655	-23.0237
6900.000000	87.351631	-22.4430
7000.000000	87.031433	-21.2461
7100.000000	86.754425	-19.7000
7200.000000	86.533844	-17.8767
7300.000000	86.364868	-15.9447
7400.000000	86.244522	-14.0288
7500.000000	86.161530	-12.1055
7620.000000	86.096619	-9.8065
7750.000000	86.061607	-7.4319
7880.000000	86.041382	-5.2577
8000.000000	86.082588	-3.5810
8120.000000	86.151466	-2.0309
8250.000000	86.278450	-0.8428
8380.000000	86.434662	-0.1363
8500.000000	86.592888	-0.1280
8620.000000	86.742027	-0.7918
8750.000000	86.842972	-2.2815
8850.000000	86.870689	-4.0853
9000.000000	86.755585	-7.5521
9120.000000	86.526611	-11.0673
9250.000000	86.072403	-14.9454
9380.000000	85.423355	-18.6237
9500.000000	84.675591	-21.3986
9620.000000	83.806313	-23.5822
9750.000000	82.816216	-24.8262
9880.000000	81.770844	-25.2797
10000.000000	80.829956	-24.9474
10150.000000	79.653061	-23.6123
10300.000000	78.510399	-21.5473
10440.000000	77.533096	-18.9647
10600.000000	76.432617	-15.5270
10750.000000	75.470413	-11.9494
10900.000000	74.547310	-8.0740
11060.000000	73.644394	-3.3963
11200.000000	72.881638	0.1713
11380.000000	71.971428	5.8979
11500.000000	71.462883	10.0879
11720.000000	70.558525	17.3927
11800.000000	70.242897	19.8802
12060.000000	69.323654	29.2197
12200.000000	68.925438	33.4100
12410.000000	68.368591	40.6771
12500.000000	68.189590	44.1501
12650.000000	67.940437	49.2246
12800.000000	67.720345	54.6247
13150.000000	67.263481	65.9825
13200.000000	67.222069	67.9400
13400.000000	67.063828	74.4288
13600.000000	66.902649	81.2704
13800.000000	66.814575	87.6552
14000.000000	66.836151	93.9536
14300.000000	66.978706	103.9061
14500.000000	67.146324	110.5939
14750.000000	67.582581	117.7885
15000.000000	68.068932	124.8673
15250.000000	68.713165	131.5723
15500.000000	69.511757	137.0918
15750.000000	70.614685	141.9577
16000.000000	71.876846	145.5017
16250.000000	73.424644	145.9211
16500.000000	75.394745	142.6481
16750.000000	77.461105	132.6710
17000.000000	78.783920	113.5805
17250.000000	78.295914	91.6625
17500.000000	76.472824	76.5865
17750.000000	74.508774	67.2267
18000.000000	72.818298	59.1868
18250.000000	71.505524	52.0494
18500.000000	70.606934	45.6024
18750.000000	69.916794	41.0506
19000.000000	69.385468	37.2932
19250.000000	68.773247	32.9771
19500.000000	68.855827	34.4964
19750.000000	69.918587	17.6076
