* Measurement data measured by REW V5.20 Beta 60
* Source: Headset (USB-C to 3.5mm Headphone Jack Adapter), MICROPHONE (Master Volume), R, volume: 0.258
* Format: 256k Log Swept Sine, 1 sweep at -10.0 dBFS with no timing reference
* Dated: Dec 19, 2021 6:11:37 PM
* REW Settings:
*  C-weighting compensation: Off
*  Target level: 75.0 dB
* Note: ; 
* Measurement: Transparency R
* Smoothing: None
* Frequency Step: 1/48 octave
* Start Frequency: 20.000 Hz
*
* Freq(Hz)	SPL(dB)	Phase(degrees)
20.000000	84.728851	-83.0997
20.299999	84.777649	-82.5375
20.600000	84.843788	-81.8976
20.900000	84.931808	-81.2898
21.200001	85.035645	-80.8344
21.400000	85.102386	-80.6030
21.799999	85.228806	-80.2068
22.000000	85.294563	-80.0190
22.400000	85.457130	-79.7297
22.700001	85.606804	-79.7710
23.000000	85.753067	-80.2705
23.299999	85.840630	-81.2378
23.600000	85.818222	-82.3820
24.000000	85.583527	-83.3520
24.299999	85.315971	-82.8653
24.700001	85.054581	-80.1040
25.000000	85.106941	-77.1831
25.400000	85.552147	-74.2773
25.799999	86.114372	-74.1744
26.200001	86.417313	-76.2928
26.500000	86.366997	-78.0813
26.900000	85.974716	-78.9269
27.200001	85.617836	-77.4588
27.600000	85.421700	-72.8982
28.000000	85.789818	-68.2062
28.500000	86.651558	-66.4108
29.000000	87.229660	-68.6545
29.500000	87.271606	-71.8126
30.000000	86.929138	-73.1231
30.400000	86.630440	-72.1391
30.700001	86.520325	-70.5136
31.100000	86.593704	-68.3221
31.500000	86.836555	-67.2281
32.000000	87.096542	-67.9690
32.500000	87.030411	-69.9047
33.000000	86.579987	-70.5393
33.500000	86.037354	-67.8669
34.000000	85.900246	-62.7128
34.500000	86.233330	-58.5888
35.000000	86.631256	-56.6763
35.500000	86.880043	-55.3756
36.000000	87.125153	-53.6613
36.500000	87.477318	-52.4821
37.000000	87.771698	-52.6919
37.500000	87.827072	-53.4129
38.200001	87.657242	-52.7484
38.700001	87.623795	-51.4172
39.500000	87.572052	-50.5209
40.000000	87.365837	-49.6085
40.599998	87.191780	-46.9487
41.200001	87.311295	-44.7298
41.799999	87.397774	-44.2822
42.500000	87.228798	-43.1892
43.099998	87.252563	-40.5879
43.700001	87.568222	-38.9789
44.400002	87.880257	-39.2920
45.000000	87.952843	-39.7950
45.500000	87.940102	-39.8747
46.200001	87.800797	-39.1929
46.799999	87.666565	-36.8633
47.500000	87.884857	-33.3111
48.200001	88.254242	-32.5241
48.700001	88.242462	-33.0221
49.400002	87.890877	-31.6623
50.000000	87.753067	-28.4733
50.799999	87.832779	-25.6635
51.500000	87.694817	-23.8231
52.200001	87.596672	-20.6369
53.000000	87.720940	-17.9229
53.799999	87.724876	-15.9438
54.500000	87.874924	-13.5784
55.200001	88.194260	-13.2844
56.000000	88.138329	-14.8236
57.000000	87.737427	-12.8587
58.000000	87.769333	-10.5173
59.000000	87.589310	-7.8851
60.000000	87.898804	-4.7998
60.799999	87.916771	-5.4438
61.500000	87.589020	-4.0803
62.200001	87.577858	-0.8066
63.000000	87.818825	0.4586
64.000000	87.669060	1.0195
65.000000	87.503708	3.6315
66.000000	87.419113	7.2410
67.000000	87.723335	10.7810
68.000000	87.803207	11.7185
69.000000	87.679260	15.5347
70.000000	87.973427	19.2348
71.000000	88.141518	20.8380
72.000000	87.982018	22.8835
73.000000	87.866592	27.6545
74.000000	88.214264	31.2386
75.000000	88.262466	32.2319
76.199997	88.158058	35.8310
77.500000	88.264999	37.3947
78.800003	87.879791	40.4619
80.000000	87.975677	43.2182
81.199997	87.800575	46.5126
82.500000	88.192749	48.5885
83.800003	87.967888	51.8568
85.000000	88.549454	53.9804
86.199997	88.189133	54.3864
87.500000	88.213493	59.6963
88.500000	88.145622	62.1577
90.000000	88.284958	67.1350
91.199997	88.235138	70.7621
92.500000	88.581711	72.6682
93.800003	88.065018	75.1388
95.000000	88.177444	80.1153
96.199997	88.174400	83.4273
97.500000	88.275581	86.1973
98.800003	87.925232	89.7986
100.000000	87.978477	94.1887
101.500000	88.008408	98.0217
103.000000	88.048714	100.6031
104.400002	88.064995	104.2504
106.000000	88.017380	108.8331
107.500000	88.334457	110.6092
109.000000	88.094139	116.5403
110.599998	87.824867	117.6319
112.000000	88.126480	124.8761
113.800003	87.849396	129.4624
115.000000	88.412476	128.9836
117.199997	88.448586	137.0718
118.000000	87.992851	134.8145
120.599998	88.012253	140.6559
122.000000	88.259674	154.0165
124.099998	87.242599	158.1902
125.000000	88.727539	159.3049
126.500000	87.147820	162.7576
128.000000	88.614960	162.1296
131.500000	87.003662	173.3129
132.000000	87.418953	-179.9035
134.000000	86.887154	178.4602
136.000000	88.252747	178.1218
138.000000	88.920998	-170.3835
140.000000	88.040215	-157.0352
143.000000	88.770302	-156.6349
145.000000	87.893181	-146.3808
147.500000	87.928894	-138.4266
150.000000	88.054268	-134.2656
152.500000	87.630768	-128.8154
155.000000	87.570496	-124.5453
157.500000	87.503128	-119.7563
160.000000	87.573677	-114.3611
162.500000	87.723595	-108.7419
165.000000	87.659683	-102.5462
167.500000	87.939873	-95.1155
170.000000	87.953384	-87.0055
172.500000	88.038589	-81.0264
175.000000	87.743217	-73.2495
177.500000	87.699051	-67.5619
180.000000	87.778427	-63.2714
182.500000	87.746208	-56.0508
185.000000	87.797729	-48.6696
187.500000	87.670128	-41.5982
190.000000	87.577545	-35.0495
192.500000	87.495514	-28.1162
195.000000	87.619293	-21.5551
197.500000	87.593269	-15.0613
200.000000	87.521988	-8.8171
203.000000	87.497147	-2.2098
206.000000	87.440781	6.3011
209.000000	87.482315	15.6061
212.000000	87.625778	21.1774
214.000000	87.015846	29.3093
218.000000	87.118088	34.3412
220.000000	87.524887	43.3411
224.000000	86.880600	55.0703
227.000000	87.366028	62.9446
230.000000	87.052109	70.8943
233.000000	87.215408	75.4421
236.000000	86.707230	85.1085
240.000000	86.987221	93.3484
243.000000	87.321793	103.8348
247.000000	86.979187	111.4042
250.000000	87.175171	119.2126
254.000000	86.691315	128.9884
258.000000	86.351440	139.7939
262.000000	86.018585	153.0886
265.000000	86.452415	160.9348
269.000000	86.962311	168.3059
272.000000	87.358795	-179.0289
276.000000	87.094414	-171.4830
280.000000	86.810204	-154.7019
285.000000	86.196022	-144.2111
290.000000	86.122787	-131.0903
295.000000	87.108963	-121.2159
300.000000	86.901184	-109.2195
304.000000	86.409157	-96.1632
307.000000	86.228607	-88.4222
311.000000	86.089378	-76.9847
315.000000	86.546761	-67.2906
320.000000	86.533524	-53.3522
325.000000	86.601311	-39.8542
330.000000	86.369041	-25.5731
335.000000	86.210518	-12.7375
340.000000	86.319733	0.5146
345.000000	85.906609	15.5831
350.000000	85.690338	25.8376
355.000000	85.946121	40.6199
360.000000	85.719086	51.7017
365.000000	85.981888	66.6415
370.000000	85.966354	80.4852
375.000000	85.734962	92.7365
382.000000	85.461403	112.5563
387.000000	85.786667	125.9708
395.000000	85.299927	145.9143
400.000000	85.616837	162.3600
406.000000	85.427338	175.9678
412.000000	85.899788	-167.0848
418.000000	85.287430	-153.3564
425.000000	85.859848	-134.4900
431.000000	85.580399	-112.1167
437.000000	85.181641	-100.5115
444.000000	85.309090	-85.6985
450.000000	83.729088	-65.0306
455.000000	83.679123	-49.8074
462.000000	85.127228	-36.4153
468.000000	84.599739	-13.5100
475.000000	85.416672	0.0101
482.000000	85.410599	21.4666
487.000000	85.144112	36.1160
494.000000	84.527870	55.1069
500.000000	84.626228	70.1699
508.000000	84.058708	87.3918
515.000000	84.294334	105.3004
522.000000	84.049484	123.3213
530.000000	83.292656	148.0938
538.000000	83.150299	170.9457
545.000000	84.056252	-173.5654
552.000000	84.273582	-150.2900
560.000000	83.558472	-126.7294
570.000000	83.885521	-101.1306
580.000000	84.418739	-77.2876
590.000000	83.811905	-48.4310
600.000000	83.991982	-23.2161
608.000000	83.811203	-0.4125
615.000000	83.657967	18.1389
622.000000	83.346184	40.9089
630.000000	83.807617	60.6653
640.000000	83.374252	87.1047
650.000000	83.392754	115.3997
660.000000	83.340912	140.8856
670.000000	83.241745	168.7722
680.000000	83.273933	-164.4590
690.000000	83.119072	-136.9248
700.000000	83.254860	-109.0360
710.000000	82.902748	-82.4391
720.000000	82.901855	-55.6804
730.000000	82.677689	-28.5508
740.000000	82.932182	-0.8884
750.000000	82.681961	26.9817
762.000000	82.833061	59.5903
775.000000	82.716232	95.1406
788.000000	82.487015	131.6689
800.000000	82.556679	163.9468
812.000000	82.484482	-163.5173
825.000000	82.475861	-127.6318
838.000000	82.514343	-92.0635
850.000000	82.550179	-59.8142
862.000000	82.293175	-26.5684
875.000000	82.199661	8.7007
885.000000	82.336502	36.6179
900.000000	82.198044	78.3059
912.000000	82.236359	110.6128
925.000000	82.254326	146.4019
938.000000	82.228134	-177.7529
950.000000	82.253677	-145.1311
962.000000	82.214783	-112.2104
975.000000	82.343437	-76.7637
988.000000	82.309456	-40.7500
1000.000000	82.325417	-7.8198
1015.000000	82.305176	33.0159
1030.000000	82.332001	73.5881
1044.000000	82.340866	113.6721
1060.000000	82.518486	157.1086
1075.000000	82.416000	-162.9565
1090.000000	82.608475	-121.3330
1106.000000	82.573074	-78.0476
1120.000000	82.654907	-39.7795
1138.000000	82.798477	9.1489
1150.000000	82.837006	41.7603
1172.000000	82.933617	101.4338
1180.000000	83.034409	122.8677
1206.000000	83.139854	-166.2974
1220.000000	83.199875	-128.1917
1241.000000	83.331009	-71.1858
1250.000000	83.414787	-46.8594
1265.000000	83.539680	-6.2820
1280.000000	83.664856	34.5171
1315.000000	83.816925	129.2732
1320.000000	83.906792	142.2917
1340.000000	84.049500	-162.9172
1360.000000	84.213341	-109.6445
1380.000000	84.253426	-55.5352
1400.000000	84.458130	-1.0640
1430.000000	84.644524	79.4192
1450.000000	84.820374	133.0938
1475.000000	85.046455	-159.7175
1500.000000	85.211708	-92.4199
1525.000000	85.417030	-24.6997
1550.000000	85.580688	42.0679
1575.000000	85.768684	108.9512
1600.000000	85.990929	176.0610
1625.000000	86.181038	-116.9390
1650.000000	86.339806	-50.2339
1675.000000	86.562653	16.5161
1700.000000	86.759735	83.3433
1725.000000	86.929634	149.8242
1750.000000	87.059288	-143.4556
1775.000000	87.274422	-77.0723
1800.000000	87.475243	-10.4683
1825.000000	87.593750	56.0596
1850.000000	87.761879	122.3574
1875.000000	87.850754	-170.6504
1900.000000	88.068268	-104.3970
1925.000000	88.351410	-37.9224
1950.000000	88.323227	28.3125
1975.000000	88.428345	94.1094
2000.000000	88.622849	160.3682
2030.000000	88.741112	-120.3418
2060.000000	88.919945	-40.7920
2090.000000	88.961143	39.5181
2120.000000	89.232933	118.2676
2140.000000	89.168411	170.7021
2180.000000	89.469994	-81.9697
2200.000000	89.370895	-30.2627
2240.000000	89.484848	76.0098
2270.000000	89.686821	154.7427
2300.000000	89.677780	-125.9863
2330.000000	89.808022	-46.6724
2360.000000	89.762962	32.3501
2400.000000	89.923790	136.5244
2430.000000	89.801224	-143.9546
2470.000000	89.849762	-37.7295
2500.000000	89.915215	41.8433
2540.000000	90.113441	146.3979
2580.000000	89.979736	-107.1514
2620.000000	89.978134	-1.9238
2650.000000	90.005013	77.8877
2690.000000	90.085831	-175.1187
2720.000000	90.106880	-97.7285
2760.000000	90.208038	8.6133
2800.000000	90.096024	116.2681
2850.000000	90.091911	-111.8164
2900.000000	90.041908	21.6948
2950.000000	89.826546	152.2520
3000.000000	89.880394	-73.6748
3040.000000	89.939308	32.7402
3070.000000	89.890594	112.9893
3110.000000	89.787750	-143.6074
3150.000000	89.540932	-36.7324
3200.000000	89.844185	98.3242
3250.000000	89.688049	-129.9912
3300.000000	89.613846	2.3262
3350.000000	89.395027	135.8691
3400.000000	89.622459	-91.4668
3450.000000	89.181221	43.9170
3500.000000	89.605881	176.3760
3550.000000	89.363083	-52.1973
3600.000000	89.476562	82.1064
3650.000000	89.284790	-145.7549
3700.000000	89.137527	-15.6006
3750.000000	89.638474	123.9199
3820.000000	89.678444	-53.9502
3870.000000	89.843674	80.5977
3950.000000	89.017899	-64.9580
4000.000000	88.426849	63.2012
4060.000000	90.081223	-140.4414
4120.000000	88.853333	29.6582
4180.000000	91.398468	-169.9561
4250.000000	85.613541	-40.1328
4310.000000	91.267860	-51.8828
4370.000000	90.888947	45.3789
4440.000000	82.466942	-102.3750
4500.000000	91.512611	-48.3145
4550.000000	89.246735	-47.5605
4620.000000	88.413071	-49.7305
4680.000000	90.733597	-40.5527
4750.000000	90.065384	-43.0508
4820.000000	90.340263	-46.2207
4870.000000	91.234604	-39.9922
4940.000000	90.776993	-46.3867
5000.000000	90.384644	-43.7480
5080.000000	90.867172	-42.9531
5150.000000	90.731720	-44.0703
5220.000000	90.971390	-43.6123
5300.000000	90.793518	-45.9209
5380.000000	90.588852	-45.4404
5450.000000	90.353745	-46.8535
5520.000000	90.424194	-47.5098
5600.000000	90.100655	-47.8066
5700.000000	89.761154	-47.8965
5800.000000	89.357246	-47.7031
5900.000000	88.940910	-47.1748
6000.000000	88.496910	-46.3730
6080.000000	88.169342	-45.1562
6150.000000	87.896446	-44.0830
6220.000000	87.639725	-42.6826
6300.000000	87.329506	-41.1367
6400.000000	87.004486	-38.6758
6500.000000	86.705688	-35.9180
6600.000000	86.474716	-33.2461
6700.000000	86.282455	-30.2363
6800.000000	86.066132	-26.7734
6900.000000	86.077644	-23.8301
7000.000000	86.099304	-20.5225
7100.000000	86.184845	-17.0488
7200.000000	86.372009	-14.0059
7300.000000	86.567314	-11.0391
7400.000000	86.806595	-8.6074
7500.000000	87.295364	-6.2451
7620.000000	87.644928	-4.2246
7750.000000	88.398926	-2.2549
7880.000000	89.000893	-2.3594
8000.000000	89.797577	-4.0967
8120.000000	90.462395	-7.4473
8250.000000	90.891342	-14.5068
8380.000000	91.093018	-22.3057
8500.000000	90.759796	-31.0371
8620.000000	89.896545	-38.2852
8750.000000	88.555275	-44.8838
8850.000000	87.435692	-47.9600
9000.000000	85.581917	-48.8555
9120.000000	84.211937	-48.0039
9250.000000	82.845627	-45.6494
9380.000000	81.611031	-42.5205
9500.000000	80.557526	-38.8408
9620.000000	79.562286	-34.2471
9750.000000	78.673027	-29.4180
9880.000000	77.948624	-24.4336
10000.000000	77.217522	-19.6025
10150.000000	76.498146	-13.3672
10300.000000	75.805313	-7.0508
10440.000000	75.420853	-1.4648
10600.000000	74.952904	6.2227
10750.000000	74.574539	12.6025
10900.000000	74.357254	18.9766
11060.000000	74.174835	25.7324
11200.000000	74.173508	31.3555
11380.000000	74.198349	38.8047
11500.000000	74.370895	42.9883
11720.000000	74.745903	51.4258
11800.000000	74.944687	53.4463
12060.000000	75.835884	60.6963
12200.000000	76.493065	63.7266
12410.000000	77.528702	66.2168
12500.000000	78.043236	66.6836
12650.000000	79.025856	66.9072
12800.000000	80.042580	64.1123
13150.000000	82.097572	50.0293
13200.000000	82.180336	46.5156
13400.000000	82.044258	30.6836
13600.000000	80.613533	17.7461
13800.000000	78.533852	11.7432
14000.000000	76.632645	11.0225
14300.000000	74.206604	15.3457
14500.000000	72.886337	19.3555
14750.000000	71.713211	27.2451
15000.000000	71.006332	34.8252
15250.000000	70.637482	42.3584
15500.000000	70.425011	49.9287
15750.000000	70.564011	55.6631
16000.000000	71.354210	60.1211
16250.000000	72.451607	63.4629
16500.000000	74.156319	62.5791
16750.000000	76.277061	52.5020
17000.000000	77.324173	28.6191
17250.000000	75.662720	3.3604
17500.000000	72.715874	-8.2119
17750.000000	69.940590	-14.8975
18000.000000	67.822762	-19.6982
18250.000000	66.051193	-22.7676
18500.000000	64.941025	-25.0225
18750.000000	64.272331	-23.7715
19000.000000	63.653168	-22.4180
19250.000000	62.974937	-23.1309
19500.000000	63.175987	-23.9531
19750.000000	63.034187	-27.5596
