* Measurement data measured by REW V5.20 Beta 60
* Source: Headset (USB-C to 3.5mm Headphone Jack Adapter), MICROPHONE (Master Volume), R, volume: 0.258
* Format: 256k Log Swept Sine, 1 sweep at -10.0 dBFS with no timing reference
* Dated: Dec 19, 2021 6:15:05 PM
* REW Settings:
*  C-weighting compensation: Off
*  Target level: 75.0 dB
* Note: ; 
* Measurement: Reference R
* Smoothing: None
* Frequency Step: 1/48 octave
* Start Frequency: 20.000 Hz
*
* Freq(Hz)	SPL(dB)	Phase(degrees)
20.000000	85.057648	-42.8003
20.299999	85.092819	-41.8276
20.600000	85.114082	-40.7620
20.900000	85.120949	-39.5812
21.200001	85.123650	-38.2532
21.400000	85.131378	-37.2786
21.799999	85.177551	-35.2397
22.000000	85.219002	-34.2784
22.400000	85.323662	-32.7275
22.700001	85.378677	-31.9014
23.000000	85.379692	-31.2143
23.299999	85.327728	-30.4002
23.600000	85.247971	-29.2537
24.000000	85.165070	-27.1495
24.299999	85.165459	-25.3890
24.700001	85.246407	-23.2618
25.000000	85.327347	-21.9914
25.400000	85.416595	-20.5845
25.799999	85.489243	-19.1227
26.200001	85.603149	-17.6093
26.500000	85.726868	-16.7184
26.900000	85.890808	-16.1549
27.200001	85.952240	-16.1485
27.600000	85.894516	-16.1920
28.000000	85.695358	-15.4542
28.500000	85.439384	-12.7125
29.000000	85.412216	-8.7575
29.500000	85.614853	-5.2027
30.000000	85.878746	-2.5671
30.400000	86.081909	-0.8965
30.700001	86.227470	0.1543
31.100000	86.394707	1.2249
31.500000	86.493645	2.0182
32.000000	86.491760	3.2402
32.500000	86.447563	5.3853
33.000000	86.527222	8.1130
33.500000	86.741783	10.1979
34.000000	86.917603	11.1188
34.500000	86.920609	11.6573
35.000000	86.775436	12.9262
35.500000	86.638817	15.3740
36.000000	86.640633	18.4086
36.500000	86.768677	21.0763
37.000000	86.903778	23.0495
37.500000	86.965317	24.7839
38.200001	86.992378	27.8022
38.700001	87.062897	30.1262
39.500000	87.131516	33.0656
40.000000	87.048813	35.1984
40.599998	86.972450	38.8486
41.200001	87.066116	42.4243
41.799999	87.128571	45.0303
42.500000	87.034927	48.8221
43.099998	87.169174	53.1269
43.700001	87.530128	55.6395
44.400002	87.689972	56.0498
45.000000	87.489067	57.1953
45.500000	87.357101	59.6212
46.200001	87.449341	63.1549
46.799999	87.577789	64.9361
47.500000	87.571152	66.6812
48.200001	87.454979	69.1731
48.700001	87.357040	71.6463
49.400002	87.317680	76.2368
50.000000	87.483139	80.3907
50.799999	87.856323	84.3410
51.500000	88.051620	86.5336
52.200001	88.067612	88.7756
53.000000	88.007576	91.9281
53.799999	87.900589	95.1418
54.500000	87.716713	98.4841
55.200001	87.646469	102.7579
56.000000	87.797089	106.4134
57.000000	87.673859	109.0191
58.000000	87.429565	114.1492
59.000000	87.541878	119.7687
60.000000	87.944031	123.5090
60.799999	87.920181	123.8053
61.500000	87.395988	126.6231
62.200001	87.258957	133.4464
63.000000	87.662247	138.1904
64.000000	87.471588	143.4194
65.000000	88.144211	151.8786
66.000000	88.701363	150.9208
67.000000	87.996223	152.8457
68.000000	87.862732	159.5622
69.000000	87.887375	163.3248
70.000000	87.781700	168.2894
71.000000	87.914253	172.3077
72.000000	87.722565	176.3830
73.000000	87.832047	-177.6835
74.000000	87.855194	-174.4194
75.000000	87.675003	-167.9368
76.199997	88.052437	-162.6872
77.500000	87.832352	-156.8734
78.800003	87.992455	-151.6924
80.000000	87.788162	-146.2072
81.199997	87.918709	-140.6646
82.500000	87.907654	-135.1963
83.800003	87.915298	-129.1108
85.000000	87.950157	-123.9058
86.199997	87.832649	-117.7792
87.500000	87.967896	-112.6104
88.500000	87.658157	-108.0233
90.000000	87.911362	-100.4313
91.199997	87.783752	-95.7191
92.500000	87.866714	-89.7911
93.800003	87.896133	-83.2234
95.000000	87.953934	-78.4765
96.199997	87.816582	-71.2847
97.500000	88.070816	-65.6226
98.800003	87.750832	-60.0693
100.000000	87.760979	-53.1931
101.500000	87.837944	-47.9337
103.000000	87.554581	-40.2022
104.400002	87.972618	-34.2046
106.000000	87.797195	-27.4989
107.500000	87.797882	-19.7636
109.000000	87.985207	-13.0861
110.599998	87.617477	-4.7047
112.000000	87.795273	1.4419
113.800003	87.633240	8.9355
115.000000	87.602348	14.0066
117.199997	87.524277	25.5231
118.000000	87.639145	28.9470
120.599998	87.954285	41.5294
122.000000	87.786842	47.7772
124.099998	87.580322	58.2450
125.000000	87.657410	62.5709
126.500000	87.650848	69.3439
128.000000	87.573746	75.8083
131.500000	87.837151	93.1022
132.000000	87.950760	93.9686
134.000000	87.469902	105.1189
136.000000	87.514816	114.0179
138.000000	87.661842	123.6497
140.000000	87.522423	132.7477
143.000000	87.546135	146.4844
145.000000	87.461334	156.4977
147.500000	87.369560	167.8338
150.000000	87.394531	179.0939
152.500000	87.430855	-168.2734
155.000000	87.449265	-156.3470
157.500000	87.470245	-144.7223
160.000000	87.450165	-132.8061
162.500000	87.425789	-120.5502
165.000000	87.338226	-109.2086
167.500000	87.207153	-97.0549
170.000000	87.311234	-86.3442
172.500000	87.308418	-74.2130
175.000000	87.385384	-61.0677
177.500000	87.256775	-49.2012
180.000000	87.250992	-37.6385
182.500000	87.180725	-25.8052
185.000000	87.112709	-13.4256
187.500000	87.285469	-2.1204
190.000000	87.099747	9.6108
192.500000	86.905052	22.5785
195.000000	86.643768	33.5583
197.500000	86.956772	41.3683
200.000000	86.937325	54.3685
203.000000	86.882088	71.3928
206.000000	87.004066	85.6251
209.000000	86.682785	100.0641
212.000000	86.785439	114.7965
214.000000	86.847290	123.9121
218.000000	86.810043	142.4070
220.000000	86.861969	150.5317
224.000000	86.601097	170.3328
227.000000	86.806366	-174.6448
230.000000	86.656960	-160.9753
233.000000	86.493034	-146.1794
236.000000	86.587784	-130.1176
240.000000	86.458069	-112.0775
243.000000	86.572708	-98.1854
247.000000	86.237686	-78.4116
250.000000	86.352997	-63.0669
254.000000	86.265137	-44.9253
258.000000	86.380707	-26.5382
262.000000	85.940071	-4.4302
265.000000	86.042580	7.5377
269.000000	86.191254	26.1683
272.000000	86.086670	41.8503
276.000000	86.114265	61.1359
280.000000	85.841248	80.2064
285.000000	85.756683	104.2235
290.000000	85.818459	128.2163
295.000000	85.778152	152.6230
300.000000	85.676224	175.4326
304.000000	85.647942	-165.2294
307.000000	85.540146	-149.8828
311.000000	85.505417	-130.5275
315.000000	85.569122	-112.0648
320.000000	85.412209	-88.4746
325.000000	85.401009	-63.9250
330.000000	85.245392	-40.5642
335.000000	85.305992	-16.1196
340.000000	85.172371	8.5442
345.000000	85.209953	33.2526
350.000000	85.088959	56.4656
355.000000	85.040306	81.0745
360.000000	84.881729	105.1035
365.000000	84.807205	129.0469
370.000000	84.928528	153.7224
375.000000	84.774704	177.1937
382.000000	84.789673	-148.1284
387.000000	84.577759	-124.3212
395.000000	84.631210	-86.8873
400.000000	84.494713	-61.6638
406.000000	84.453064	-32.9697
412.000000	84.382431	-3.4335
418.000000	84.230690	25.6265
425.000000	84.174736	59.3876
431.000000	84.107376	89.0071
437.000000	84.137154	117.6743
444.000000	84.083260	151.2375
450.000000	84.048019	-179.3789
455.000000	83.923569	-155.6934
462.000000	83.843681	-121.5913
468.000000	83.858559	-92.1794
475.000000	83.630424	-59.0059
482.000000	83.700333	-24.7681
487.000000	83.701080	-0.8193
494.000000	83.369202	32.4763
500.000000	83.430153	62.1758
508.000000	83.289894	100.4829
515.000000	83.256218	136.0381
522.000000	83.389694	169.8794
530.000000	83.115562	-150.8105
538.000000	83.030182	-111.9263
545.000000	82.988258	-78.9202
552.000000	82.857086	-44.5049
560.000000	82.870377	-6.0137
570.000000	82.818703	42.5542
580.000000	82.658775	91.1431
590.000000	82.538864	140.4963
600.000000	82.437843	-171.0928
608.000000	82.349289	-131.8528
615.000000	82.261307	-97.5610
622.000000	82.239532	-63.0068
630.000000	82.208145	-24.4851
640.000000	82.064835	23.9753
650.000000	82.047905	72.9995
660.000000	82.007332	121.9153
670.000000	81.866928	170.3623
680.000000	81.838432	-140.3540
690.000000	81.698013	-91.6436
700.000000	81.634514	-43.0110
710.000000	81.543106	6.6785
720.000000	81.461189	54.8579
730.000000	81.459152	104.2302
740.000000	81.413734	152.7810
750.000000	81.291946	-157.9939
762.000000	81.219910	-99.2856
775.000000	81.171616	-35.8926
788.000000	81.124031	27.5012
800.000000	81.066833	86.8477
812.000000	80.968132	145.6021
825.000000	81.025894	-150.6499
838.000000	80.889359	-87.4141
850.000000	80.923943	-28.2393
862.000000	80.903252	30.3242
875.000000	80.837036	93.7681
885.000000	80.829521	142.5566
900.000000	80.759834	-143.0869
912.000000	80.731293	-84.2988
925.000000	80.696304	-21.0039
938.000000	80.689590	42.6699
950.000000	80.737648	101.5991
962.000000	80.724586	160.3364
975.000000	80.739388	-135.6685
988.000000	80.728836	-71.8906
1000.000000	80.787003	-12.7915
1015.000000	80.713608	60.2324
1030.000000	80.754517	133.7705
1044.000000	80.800308	-157.6006
1060.000000	80.872055	-79.3525
1075.000000	80.926651	-6.1533
1090.000000	80.953873	67.3506
1106.000000	81.037605	145.3721
1120.000000	81.096809	-146.1313
1138.000000	81.202072	-58.2441
1150.000000	81.237747	-0.2080
1172.000000	81.349838	107.1006
1180.000000	81.401520	146.0732
1206.000000	81.430122	-86.9282
1220.000000	81.572243	-18.4912
1241.000000	81.714760	83.2549
1250.000000	81.765015	127.1152
1265.000000	81.914169	-160.0288
1280.000000	81.951057	-86.9160
1315.000000	82.154579	82.9595
1320.000000	82.177200	107.2827
1340.000000	82.314392	-155.6016
1360.000000	82.429054	-58.4678
1380.000000	82.552063	38.5928
1400.000000	82.672852	135.3457
1430.000000	82.821159	-78.9595
1450.000000	82.964890	18.2881
1475.000000	83.101738	139.2837
1500.000000	83.248573	-99.5386
1525.000000	83.432968	21.4805
1550.000000	83.578995	142.4624
1575.000000	83.720474	-96.4097
1600.000000	83.871750	24.4902
1625.000000	84.006088	145.4082
1650.000000	84.187607	-93.8657
1675.000000	84.340790	26.8418
1700.000000	84.489189	148.0186
1725.000000	84.686234	-91.3809
1750.000000	84.804703	29.2773
1775.000000	84.925728	149.8828
1800.000000	85.022263	-89.7549
1825.000000	85.116516	30.6807
1850.000000	85.326515	151.6152
1875.000000	85.518295	-87.9062
1900.000000	85.496407	32.5527
1925.000000	85.620644	153.0742
1950.000000	85.632530	-86.7451
1975.000000	85.689049	33.4912
2000.000000	85.850403	154.1367
2030.000000	86.040756	-60.3477
2060.000000	85.859406	83.9043
2090.000000	86.082298	-132.0127
2120.000000	86.155724	12.5498
2140.000000	86.302483	109.7861
2180.000000	86.373520	-59.4941
2200.000000	86.270340	38.1816
2240.000000	86.422844	-129.3906
2270.000000	86.469063	14.9287
2300.000000	86.386124	158.9785
2330.000000	86.475204	-58.2559
2360.000000	86.781517	87.3916
2400.000000	86.681900	-80.4727
2430.000000	86.829285	63.6924
2470.000000	86.927895	-102.2520
2500.000000	86.776260	41.7803
2540.000000	86.886688	-125.8379
2580.000000	86.854294	66.1240
2620.000000	87.140495	-99.6689
2650.000000	87.004845	44.5928
2690.000000	87.034607	-122.9609
2720.000000	87.025879	21.4043
2760.000000	87.006546	-145.6172
2800.000000	87.085815	47.6543
2850.000000	87.085014	-71.9492
2900.000000	87.291016	169.6074
2950.000000	87.084000	50.6543
3000.000000	87.149002	-68.5635
3040.000000	86.872528	124.5068
3070.000000	87.215698	-93.7061
3110.000000	86.953613	100.0234
3150.000000	87.200874	-65.9463
3200.000000	87.480789	175.7686
3250.000000	87.239868	55.2236
3300.000000	87.279999	-63.0479
3350.000000	87.617783	177.0127
3400.000000	87.302719	58.0176
3450.000000	87.370674	-60.1777
3500.000000	87.673424	-177.1133
3550.000000	87.654579	61.7051
3600.000000	87.548996	-57.5410
3650.000000	87.161224	-178.7500
3700.000000	87.449097	64.2500
3750.000000	87.731209	-55.2734
3820.000000	87.460442	-72.4844
3870.000000	88.595047	162.2598
3950.000000	86.959587	-177.6660
4000.000000	87.477097	71.8027
4060.000000	87.411697	-3.8184
4120.000000	89.828491	-96.4805
4180.000000	88.506844	-118.9434
4250.000000	90.893234	71.7852
4310.000000	84.427307	-153.1699
4370.000000	86.480972	-42.8828
4440.000000	87.994072	-34.1504
4500.000000	88.035233	-47.5645
4550.000000	89.199677	-42.0137
4620.000000	88.670532	-40.2461
4680.000000	88.728271	-47.9180
4750.000000	88.839890	-45.9316
4820.000000	88.585121	-45.2695
4870.000000	89.239334	-45.6758
4940.000000	88.573517	-46.6797
5000.000000	88.136078	-46.4395
5080.000000	88.470810	-47.9336
5150.000000	88.625648	-45.6250
5220.000000	88.157661	-47.4844
5300.000000	88.372253	-46.8809
5380.000000	87.966324	-46.8145
5450.000000	87.908485	-46.6738
5520.000000	87.676964	-46.4102
5600.000000	87.425446	-46.0410
5700.000000	87.074364	-45.2734
5800.000000	86.739815	-44.2012
5900.000000	86.405365	-42.8848
6000.000000	86.057922	-41.2949
6080.000000	85.801529	-39.7852
6150.000000	85.615273	-38.3281
6220.000000	85.426529	-36.8711
6300.000000	85.232010	-34.9688
6400.000000	85.016136	-32.5059
6500.000000	84.829857	-29.8945
6600.000000	84.685394	-27.2363
6700.000000	84.568832	-24.3965
6800.000000	84.508064	-21.4609
6900.000000	84.496651	-18.4766
7000.000000	84.581848	-15.5117
7100.000000	84.726959	-12.4297
7200.000000	84.945915	-9.6211
7300.000000	85.211136	-7.0273
7400.000000	85.539772	-4.6875
7500.000000	85.944168	-2.7930
7620.000000	86.498047	-0.9746
7750.000000	87.152458	-0.0586
7880.000000	87.866440	-0.3711
8000.000000	88.571487	-2.4688
8120.000000	89.242447	-6.4805
8250.000000	89.735825	-13.5586
8380.000000	89.757591	-22.5508
8500.000000	89.242142	-30.9551
8620.000000	88.282928	-37.8750
8750.000000	86.931374	-42.8379
8850.000000	85.816177	-44.9512
9000.000000	84.158371	-45.5664
9120.000000	82.925644	-44.5547
9250.000000	81.695251	-42.3438
9380.000000	80.553101	-39.3457
9500.000000	79.559082	-36.0332
9620.000000	78.695709	-32.1719
9750.000000	77.816986	-27.5137
9880.000000	77.100449	-22.6680
10000.000000	76.492424	-18.1680
10150.000000	75.835823	-12.2324
10300.000000	75.231750	-6.1094
10440.000000	74.791237	-0.8633
10600.000000	74.352570	5.9180
10750.000000	74.134369	12.1973
10900.000000	73.945381	18.4102
11060.000000	73.886894	24.8223
11200.000000	73.914696	29.5781
11380.000000	74.084435	35.6738
11500.000000	74.250092	39.5410
11720.000000	74.698776	45.9082
11800.000000	74.898857	47.9395
12060.000000	75.830849	52.6680
12200.000000	76.364899	53.9629
12410.000000	77.260483	54.4863
12500.000000	77.646049	53.8438
12650.000000	78.220909	52.3398
12800.000000	78.754715	49.5996
13150.000000	79.694687	39.2109
13200.000000	79.748009	36.9844
13400.000000	79.508255	27.4238
13600.000000	78.563835	19.2012
13800.000000	77.203529	14.4316
14000.000000	75.756409	13.0703
14300.000000	73.903641	15.7852
14500.000000	72.909813	19.4141
14750.000000	71.992577	24.8672
15000.000000	71.464157	30.9336
15250.000000	71.240295	36.6172
15500.000000	71.384422	41.9297
15750.000000	71.912048	45.3438
16000.000000	72.522781	46.5449
16250.000000	73.891724	43.9102
16500.000000	75.134987	33.9531
16750.000000	75.506386	17.0156
17000.000000	74.312531	-0.5137
17250.000000	72.141006	-12.0352
17500.000000	69.906906	-17.1016
17750.000000	68.071999	-20.0293
18000.000000	66.508972	-23.6094
18250.000000	65.334930	-25.8867
18500.000000	64.453323	-28.6797
18750.000000	63.831741	-29.6406
19000.000000	63.579475	-28.9043
19250.000000	63.408257	-29.2012
19500.000000	63.589897	-31.1250
19750.000000	64.344208	-33.9258
