* Measurement data measured by REW V5.20 Beta 60
* Source: Headset (USB-C to 3.5mm Headphone Jack Adapter), MICROPHONE (Master Volume), R, volume: 0.250
* Format: 256k Log Swept Sine, 1 sweep at -6.0 dBFS with no timing reference
* Dated: Sep 24, 2021 3:48:52 AM
* REW Settings:
*  C-weighting compensation: Off
*  Target level: 75.0 dB
* Note: ; 
* Measurement: Triple flange L
* Smoothing: None
* Frequency Step: 1/48 octave
* Start Frequency: 20.000 Hz
*
* Freq(Hz)	SPL(dB)	Phase(degrees)
20.000000	86.872864	-28.4124
20.299999	86.881149	-28.9299
20.600000	86.890434	-29.4995
20.900000	86.894089	-30.1167
21.200001	86.891129	-30.7754
21.400000	86.882507	-31.2107
21.799999	86.851868	-32.0236
22.000000	86.833519	-32.3908
22.400000	86.801910	-33.0642
22.700001	86.783234	-33.5115
23.000000	86.771095	-33.9468
23.299999	86.765488	-34.4081
23.600000	86.760544	-34.8948
24.000000	86.748451	-35.5734
24.299999	86.734833	-36.0882
24.700001	86.711784	-36.7463
25.000000	86.693520	-37.2128
25.400000	86.673355	-37.8258
25.799999	86.654022	-38.4327
26.200001	86.634010	-39.0571
26.500000	86.617584	-39.5331
26.900000	86.591476	-40.1465
27.200001	86.571274	-40.5914
27.600000	86.546463	-41.1687
28.000000	86.521599	-41.7404
28.500000	86.491455	-42.4718
29.000000	86.460556	-43.1874
29.500000	86.433922	-43.8964
30.000000	86.408195	-44.6100
30.400000	86.387520	-45.2047
30.700001	86.369217	-45.6485
31.100000	86.341782	-46.2270
31.500000	86.313774	-46.7859
32.000000	86.280182	-47.4436
32.500000	86.252312	-48.0972
33.000000	86.225342	-48.7572
33.500000	86.195038	-49.4307
34.000000	86.159462	-50.0856
34.500000	86.126366	-50.7194
35.000000	86.093903	-51.3235
35.500000	86.064117	-51.9187
36.000000	86.035370	-52.5142
36.500000	86.005356	-53.1321
37.000000	85.972397	-53.7451
37.500000	85.939644	-54.3391
38.200001	85.896355	-55.1375
38.700001	85.868607	-55.7241
39.500000	85.822029	-56.7007
40.000000	85.785027	-57.2824
40.599998	85.738327	-57.9140
41.200001	85.703629	-58.4921
41.799999	85.680168	-59.1115
42.500000	85.647453	-59.8956
43.099998	85.615540	-60.5531
43.700001	85.588097	-61.2223
44.400002	85.548691	-62.0779
45.000000	85.498604	-62.7786
45.500000	85.456543	-63.2706
46.200001	85.412643	-63.8886
46.799999	85.383583	-64.4673
47.500000	85.347237	-65.1709
48.200001	85.311523	-65.8658
48.700001	85.285553	-66.4069
49.400002	85.233315	-67.1647
50.000000	85.176056	-67.6827
50.799999	85.128311	-68.2442
51.500000	85.113220	-68.8111
52.200001	85.089279	-69.5355
53.000000	85.038536	-70.3437
53.799999	84.989403	-71.0463
54.500000	84.947838	-71.6827
55.200001	84.898857	-72.2805
56.000000	84.854820	-72.8293
57.000000	84.834091	-73.6683
58.000000	84.780022	-74.7115
59.000000	84.704269	-75.4805
60.000000	84.670380	-76.1507
60.799999	84.645348	-76.8713
61.500000	84.603111	-77.5504
62.200001	84.543938	-78.0967
63.000000	84.497841	-78.5084
64.000000	84.491356	-79.2408
65.000000	84.449417	-80.2106
66.000000	84.409256	-80.9823
67.000000	84.369965	-81.9871
68.000000	84.272003	-82.6344
69.000000	84.260666	-82.8812
70.000000	84.269157	-83.6814
71.000000	84.205574	-84.3672
72.000000	84.178009	-84.8319
73.000000	84.146263	-85.5533
74.000000	84.113243	-86.1689
75.000000	84.095955	-87.0847
76.199997	83.998093	-87.9420
77.500000	84.002464	-88.3981
78.800003	83.977547	-89.3883
80.000000	83.934029	-89.9503
81.199997	83.859756	-90.5895
82.500000	83.827690	-91.3168
83.800003	83.727753	-92.1724
85.000000	83.763000	-93.2108
86.199997	83.712921	-93.7630
87.500000	83.803169	-95.1493
88.500000	83.721489	-93.7774
90.000000	84.399216	-97.0704
91.199997	83.613884	-98.6309
92.500000	83.713348	-96.5920
93.800003	83.520645	-97.3935
95.000000	83.521828	-97.9421
96.199997	83.411995	-98.6145
97.500000	83.422623	-99.6635
98.800003	83.401443	-99.9743
100.000000	83.449646	-101.0073
101.500000	83.343239	-101.3732
103.000000	83.325424	-101.9331
104.400002	83.273834	-102.5018
106.000000	83.229340	-103.3604
107.500000	83.216415	-104.0659
109.000000	83.206718	-104.6945
110.599998	83.183121	-105.3310
112.000000	83.157715	-105.7905
113.800003	83.102364	-106.4755
115.000000	83.089256	-106.8778
117.199997	83.060005	-107.8382
118.000000	83.052368	-108.1061
120.599998	83.012466	-109.0586
122.000000	83.002571	-109.5002
124.099998	82.942696	-110.4557
125.000000	82.915253	-110.6909
126.500000	82.906448	-111.1301
128.000000	82.893425	-111.6997
131.500000	82.857506	-112.7692
132.000000	82.860657	-112.9554
134.000000	82.833336	-113.5372
136.000000	82.823814	-114.2153
138.000000	82.818405	-114.7793
140.000000	82.787041	-115.3455
143.000000	82.729858	-116.2960
145.000000	82.715485	-116.9350
147.500000	82.691971	-117.6595
150.000000	82.712891	-118.6545
152.500000	82.661018	-119.0149
155.000000	82.638992	-119.5901
157.500000	82.613693	-120.2783
160.000000	82.602730	-120.8754
162.500000	82.593567	-121.4710
165.000000	82.576897	-122.0373
167.500000	82.563309	-122.5946
170.000000	82.551285	-123.1562
172.500000	82.519943	-123.6882
175.000000	82.494484	-124.1840
177.500000	82.471527	-124.6816
180.000000	82.447464	-125.2111
182.500000	82.413506	-125.6638
185.000000	82.393745	-126.1408
187.500000	82.368881	-126.6095
190.000000	82.344025	-127.0415
192.500000	82.318039	-127.4759
195.000000	82.295990	-127.9020
197.500000	82.274132	-128.3196
200.000000	82.232368	-128.8421
203.000000	82.226440	-129.1529
206.000000	82.205627	-129.6070
209.000000	82.174011	-130.0264
212.000000	82.146988	-130.4295
214.000000	82.135468	-130.7600
218.000000	82.116905	-131.1820
220.000000	82.099350	-131.4155
224.000000	82.102112	-131.8894
227.000000	82.099030	-132.1558
230.000000	82.083916	-132.4772
233.000000	82.086746	-132.8066
236.000000	82.095459	-133.1243
240.000000	82.093269	-133.5838
243.000000	82.073959	-134.0782
247.000000	82.062897	-134.3678
250.000000	82.088867	-134.5210
254.000000	82.016785	-135.1905
258.000000	82.002426	-135.6136
262.000000	81.980148	-135.9404
265.000000	81.958099	-136.1905
269.000000	81.934906	-136.5327
272.000000	81.923737	-136.7372
276.000000	81.894501	-137.0840
280.000000	81.885513	-137.3229
285.000000	81.857178	-137.6557
290.000000	81.844040	-137.9938
295.000000	81.819603	-138.3164
300.000000	81.814079	-138.5706
304.000000	81.779785	-138.7537
307.000000	81.762772	-138.9205
311.000000	81.749161	-139.1092
315.000000	81.730606	-139.2716
320.000000	81.711655	-139.4921
325.000000	81.690826	-139.6865
330.000000	81.676109	-139.9191
335.000000	81.648788	-140.0425
340.000000	81.631073	-140.2565
345.000000	81.614166	-140.4160
350.000000	81.628212	-140.6366
355.000000	81.569427	-140.6489
360.000000	81.542870	-140.7307
365.000000	81.522156	-140.7660
370.000000	81.508255	-140.9290
375.000000	81.498039	-141.0296
382.000000	81.466446	-141.1375
387.000000	81.448647	-141.1695
395.000000	81.428787	-141.2279
400.000000	81.410370	-141.2377
406.000000	81.398933	-141.2650
412.000000	81.378792	-141.3428
418.000000	81.365990	-141.3209
425.000000	81.349289	-141.3692
431.000000	81.331894	-141.2935
437.000000	81.323105	-141.2301
444.000000	81.310440	-141.2453
450.000000	81.319870	-141.0119
455.000000	81.301788	-141.1348
462.000000	81.289078	-141.1592
468.000000	81.276070	-141.1657
475.000000	81.255035	-141.1321
482.000000	81.236504	-141.0823
487.000000	81.231216	-141.0739
494.000000	81.224731	-140.9954
500.000000	81.205902	-141.0424
508.000000	81.196457	-140.7076
515.000000	81.192139	-140.5602
522.000000	81.174881	-140.4304
530.000000	81.162239	-140.2521
538.000000	81.144287	-140.0863
545.000000	81.128471	-139.8390
552.000000	81.126884	-139.6411
560.000000	81.121193	-139.4831
570.000000	81.100998	-139.1635
580.000000	81.093674	-138.7942
590.000000	81.076706	-138.4493
600.000000	81.072998	-138.1850
608.000000	81.061981	-137.7294
615.000000	81.058899	-137.4348
622.000000	81.057091	-137.3096
630.000000	81.060883	-136.8922
640.000000	81.066803	-136.5887
650.000000	81.061264	-136.1127
660.000000	81.069008	-135.7618
670.000000	81.072250	-135.2626
680.000000	81.081345	-134.8484
690.000000	81.083061	-134.4157
700.000000	81.038925	-133.8708
710.000000	81.095085	-133.4221
720.000000	81.096786	-132.9458
730.000000	81.118599	-132.3809
740.000000	81.132149	-131.9019
750.000000	81.146515	-131.5105
762.000000	81.164566	-130.7730
775.000000	81.190742	-130.0324
788.000000	81.218605	-129.3048
800.000000	81.224190	-128.4842
812.000000	81.268814	-127.9482
825.000000	81.284996	-127.2540
838.000000	81.360069	-126.4299
850.000000	81.406914	-125.7405
862.000000	81.449570	-124.9969
875.000000	81.509132	-124.2276
885.000000	81.548470	-123.5820
900.000000	81.623848	-122.6079
912.000000	81.704407	-121.9592
925.000000	81.763214	-121.0697
938.000000	81.887497	-120.3507
950.000000	81.982025	-119.7643
962.000000	82.060722	-118.9944
975.000000	82.154289	-118.2261
988.000000	82.291290	-117.5407
1000.000000	82.478416	-116.7340
1015.000000	82.524414	-116.2310
1030.000000	82.652245	-115.6252
1044.000000	82.786034	-115.0176
1060.000000	82.952644	-114.3893
1075.000000	83.114548	-113.8656
1090.000000	83.277702	-113.4599
1106.000000	83.468468	-113.0447
1120.000000	83.626785	-112.7801
1138.000000	83.838554	-112.4942
1150.000000	83.982681	-112.3816
1172.000000	84.229141	-112.2374
1180.000000	84.318077	-112.2109
1206.000000	84.600548	-112.2467
1220.000000	84.756905	-112.3244
1241.000000	84.977859	-112.5377
1250.000000	85.075851	-112.5668
1265.000000	85.222404	-112.8011
1280.000000	85.367928	-113.0490
1315.000000	85.683411	-113.6841
1320.000000	85.728638	-113.7692
1340.000000	85.894196	-114.1504
1360.000000	86.051788	-114.5864
1380.000000	86.201591	-115.0245
1400.000000	86.337952	-115.4919
1430.000000	86.534798	-116.0967
1450.000000	86.655273	-116.6336
1475.000000	86.809502	-116.9886
1500.000000	86.952034	-117.6220
1525.000000	87.086525	-118.0975
1550.000000	87.212372	-118.6312
1575.000000	87.347435	-119.0795
1600.000000	87.468178	-119.5950
1625.000000	87.598038	-119.9966
1650.000000	87.720543	-120.5526
1675.000000	87.840096	-121.0231
1700.000000	87.960426	-121.4720
1725.000000	88.061798	-122.0583
1750.000000	88.182846	-122.5656
1775.000000	88.284798	-123.1526
1800.000000	88.385078	-123.6748
1825.000000	88.478149	-124.3414
1850.000000	88.576767	-124.8949
1875.000000	88.628807	-125.5391
1900.000000	88.702492	-126.1121
1925.000000	88.749741	-126.6271
1950.000000	88.784485	-127.2047
1975.000000	88.840385	-127.4415
2000.000000	88.859344	-128.0475
2030.000000	89.022232	-128.1584
2060.000000	89.147530	-128.6342
2090.000000	89.252625	-129.2566
2120.000000	89.357246	-129.9585
2140.000000	89.420898	-130.4628
2180.000000	89.531914	-131.4965
2200.000000	89.589485	-131.9963
2240.000000	89.682365	-133.3676
2270.000000	89.728363	-134.5858
2300.000000	89.763077	-136.0581
2330.000000	89.802490	-137.4876
2360.000000	89.818695	-138.9538
2400.000000	89.824219	-140.6558
2430.000000	89.836594	-141.6346
2470.000000	89.819229	-142.7705
2500.000000	89.798080	-143.5738
2540.000000	89.758896	-144.6233
2580.000000	89.704247	-145.6268
2620.000000	89.660629	-146.5467
2650.000000	89.626167	-147.2509
2690.000000	89.561234	-148.1341
2720.000000	89.518127	-148.7657
2760.000000	89.436928	-149.5737
2800.000000	89.351677	-150.3343
2850.000000	89.242096	-151.2467
2900.000000	89.136620	-152.0642
2950.000000	89.026459	-152.8036
3000.000000	88.911766	-153.1077
3040.000000	88.831413	-153.8973
3070.000000	88.764343	-154.2857
3110.000000	88.680222	-154.6974
3150.000000	88.600967	-155.0357
3200.000000	88.519966	-155.5376
3250.000000	88.428665	-155.9466
3300.000000	88.361771	-156.3100
3350.000000	88.288895	-156.7422
3400.000000	88.236679	-157.0431
3450.000000	88.201988	-157.5335
3500.000000	88.195900	-158.0342
3550.000000	88.186371	-158.5000
3600.000000	88.183617	-159.1109
3650.000000	88.187737	-159.5969
3700.000000	88.196281	-160.2641
3750.000000	88.194527	-161.0117
3820.000000	88.194481	-162.0927
3870.000000	88.184364	-162.8955
3950.000000	88.154701	-164.3761
4000.000000	88.108154	-165.3983
4060.000000	88.109116	-166.5187
4120.000000	88.079254	-167.8887
4180.000000	88.023140	-169.2133
4250.000000	87.971375	-170.8447
4310.000000	87.887917	-172.2353
4370.000000	87.819557	-173.7095
4440.000000	87.714851	-175.5047
4500.000000	87.609604	-177.1587
4550.000000	87.506454	-178.3801
4620.000000	87.345879	179.8469
4680.000000	87.206978	178.3045
4750.000000	86.999817	176.5698
4820.000000	86.792473	174.9196
4870.000000	86.640770	173.7924
4940.000000	86.400406	172.1823
5000.000000	86.191467	170.7768
5080.000000	85.900528	169.3665
5150.000000	85.623215	168.1675
5220.000000	85.358154	167.1103
5300.000000	85.048950	165.9708
5380.000000	84.731865	165.0555
5450.000000	84.434639	164.2627
5520.000000	84.145630	163.7854
5600.000000	83.780006	163.1360
5700.000000	83.374687	162.7260
5800.000000	82.977982	162.3357
5900.000000	82.587280	162.1700
6000.000000	82.220642	161.8991
6080.000000	81.969391	161.8642
6150.000000	81.813591	161.8609
6220.000000	81.556725	161.8303
6300.000000	81.363388	161.9163
6400.000000	81.110573	161.7607
6500.000000	80.857819	161.7783
6600.000000	80.641693	161.8916
6700.000000	80.434654	161.6949
6800.000000	80.269913	161.6497
6900.000000	80.110825	161.3518
7000.000000	80.005013	161.2704
7100.000000	79.902008	161.0836
7200.000000	79.845291	160.7104
7300.000000	79.753601	160.3309
7400.000000	79.731018	159.6033
7500.000000	79.654808	158.7701
7620.000000	79.550026	157.8512
7750.000000	79.392242	156.5643
7880.000000	79.177597	154.9089
8000.000000	78.968941	153.5099
8120.000000	78.721535	152.0462
8250.000000	78.418243	150.7478
8380.000000	78.083855	148.9899
8500.000000	77.663460	147.8668
8620.000000	77.352127	146.6140
8750.000000	76.901428	145.8789
8850.000000	76.498177	145.3908
9000.000000	75.924072	144.6154
9120.000000	75.474335	144.8108
9250.000000	75.027557	144.8478
9380.000000	74.563492	145.1676
9500.000000	74.138107	146.0739
9620.000000	73.737961	146.7864
9750.000000	73.390282	147.5171
9880.000000	73.040329	149.3517
10000.000000	72.802963	150.4700
10150.000000	72.611679	151.9915
10300.000000	72.337288	153.9177
10440.000000	72.255852	155.9234
10600.000000	72.165176	157.6404
10750.000000	72.080147	159.8549
10900.000000	72.266609	161.8038
11060.000000	72.428459	163.7158
11200.000000	72.710159	165.2184
11380.000000	73.165260	167.1192
11500.000000	73.534180	167.6791
11720.000000	74.510269	168.7172
11800.000000	74.929848	168.3432
12060.000000	76.538704	166.0615
12200.000000	77.619019	162.6545
12410.000000	79.328041	153.5225
12500.000000	80.016022	147.7376
12650.000000	80.833000	135.2737
12800.000000	80.986923	121.1925
13150.000000	79.184914	95.6454
13200.000000	78.858521	93.4246
13400.000000	77.546700	87.1451
13600.000000	76.444221	83.3813
13800.000000	75.707382	81.6468
14000.000000	75.242737	80.7432
14300.000000	75.161469	79.1777
14500.000000	75.569580	76.6615
14750.000000	76.394516	71.1490
15000.000000	77.538483	59.5214
15250.000000	78.263916	38.9417
15500.000000	77.179993	14.2090
15750.000000	74.815750	-3.3837
16000.000000	72.284546	-14.4568
16250.000000	70.322998	-20.9652
16500.000000	68.748848	-26.5770
16750.000000	67.376457	-32.9442
17000.000000	66.070557	-44.9367
17250.000000	64.185097	-58.2800
17500.000000	61.330605	-69.3416
17750.000000	58.387722	-75.3726
18000.000000	54.918221	-79.4502
18250.000000	52.139187	-87.3803
18500.000000	48.944763	-85.8635
18750.000000	45.493523	-81.0009
19000.000000	46.445934	-60.9707
19250.000000	40.490940	-46.6008
19500.000000	42.544914	-34.2645
19750.000000	39.640121	-11.9926
