* Measurement data measured by REW V5.20 Beta 60
* Source: Headset (USB-C to 3.5mm Headphone Jack Adapter), MICROPHONE (Master Volume), R, volume: 0.258
* Format: 256k Log Swept Sine, 1 sweep at -12.0 dBFS with no timing reference
* Dated: Jun 20, 2021 6:31:34 PM
* REW Settings:
*  C-weighting compensation: Off
*  Target level: 75.0 dB
* Note: ; 
* Measurement: Final A8000 L
* Smoothing: None
* Frequency Step: 1/48 octave
* Start Frequency: 20.000 Hz
*
* Freq(Hz)	SPL(dB)	Phase(degrees)
20.000000	89.523537	-172.8327
20.299999	89.537102	-173.4248
20.600000	89.539085	-174.0259
20.900000	89.528664	-174.5793
21.200001	89.515068	-175.0562
21.400000	89.507034	-175.3213
21.799999	89.500031	-175.7491
22.000000	89.504021	-175.9429
22.400000	89.528625	-176.3815
22.700001	89.549377	-176.7562
23.000000	89.563889	-177.1639
23.299999	89.570511	-177.5739
23.600000	89.567917	-177.9362
24.000000	89.556183	-178.3022
24.299999	89.550613	-178.5005
24.700001	89.553741	-178.7108
25.000000	89.563011	-178.8798
25.400000	89.579865	-179.1797
25.799999	89.587555	-179.5396
26.200001	89.582069	-179.9241
26.500000	89.571198	179.7989
26.900000	89.550034	179.4783
27.200001	89.533813	179.2627
27.600000	89.515213	178.9885
28.000000	89.496964	178.7112
28.500000	89.476158	178.3393
29.000000	89.457664	177.9701
29.500000	89.446228	177.5850
30.000000	89.436813	177.1842
30.400000	89.431129	176.8474
30.700001	89.426834	176.6014
31.100000	89.422623	176.2736
31.500000	89.420074	175.9288
32.000000	89.411530	175.4907
32.500000	89.394142	175.0834
33.000000	89.372223	174.7895
33.500000	89.359238	174.5785
34.000000	89.357132	174.3483
34.500000	89.355667	174.0255
35.000000	89.337654	173.6992
35.500000	89.313919	173.4670
36.000000	89.303345	173.2845
36.500000	89.303253	172.9830
37.000000	89.291656	172.5481
37.500000	89.256805	172.1305
38.200001	89.205559	171.7786
38.700001	89.191628	171.5467
39.500000	89.170410	170.9879
40.000000	89.140976	170.7002
40.599998	89.114456	170.4790
41.200001	89.103806	170.2177
41.799999	89.079826	169.9317
42.500000	89.049431	169.8317
43.099998	89.065018	169.7052
43.700001	89.068634	169.1972
44.400002	88.976807	168.6071
45.000000	88.880287	168.6884
45.500000	88.863686	168.9058
46.200001	88.889557	168.6707
46.799999	88.847054	168.0928
47.500000	88.736832	167.8794
48.200001	88.694275	168.1243
48.700001	88.716248	168.0919
49.400002	88.731552	167.5715
50.000000	88.682800	167.0757
50.799999	88.589806	166.8585
51.500000	88.556427	167.0057
52.200001	88.572922	166.9789
53.000000	88.583420	166.5050
53.799999	88.522690	165.8998
54.500000	88.430916	165.7016
55.200001	88.381767	165.7728
56.000000	88.369850	165.5204
57.000000	88.272308	165.0781
58.000000	88.240646	165.1610
59.000000	88.210777	164.4855
60.000000	88.095093	164.5976
60.799999	88.123985	164.7922
61.500000	88.134453	164.3797
62.200001	88.075142	164.0861
63.000000	88.024239	164.1049
64.000000	87.983795	163.8929
65.000000	87.911316	163.7460
66.000000	87.862785	163.6346
67.000000	87.812340	163.3617
68.000000	87.746506	163.1271
69.000000	87.690964	163.0063
70.000000	87.642204	162.9177
71.000000	87.607292	162.8846
72.000000	87.581543	162.7407
73.000000	87.534935	162.5669
74.000000	87.490768	162.4629
75.000000	87.441490	162.2491
76.199997	87.355331	162.1886
77.500000	87.328209	162.1712
78.800003	87.251617	161.8741
80.000000	87.220963	161.9128
81.199997	87.137390	161.5493
82.500000	87.088715	161.9432
83.800003	87.040886	161.3934
85.000000	86.939865	161.5510
86.199997	86.881760	161.6023
87.500000	86.873222	161.6462
88.500000	86.810516	161.2180
90.000000	86.715347	161.4896
91.199997	86.680656	161.4039
92.500000	86.629364	161.3024
93.800003	86.572769	161.0948
95.000000	86.480957	160.9515
96.199997	86.429291	161.1545
97.500000	86.385094	161.2117
98.800003	86.391861	161.2361
100.000000	86.318138	160.9587
101.500000	86.258392	161.2286
103.000000	86.177452	161.1240
104.400002	86.103058	161.1967
106.000000	86.029015	161.1735
107.500000	85.967155	161.2308
109.000000	85.933983	161.1519
110.599998	85.848831	161.1439
112.000000	85.780205	161.6438
113.800003	85.785362	161.5012
115.000000	85.696457	161.5857
117.199997	85.649086	161.7400
118.000000	85.633003	161.6385
120.599998	85.504013	161.8302
122.000000	85.478775	162.0349
124.099998	85.390923	162.0663
125.000000	85.361359	162.1681
126.500000	85.289070	162.1440
128.000000	85.247086	162.2606
131.500000	85.111404	162.5644
132.000000	85.099442	162.6458
134.000000	85.035103	162.7202
136.000000	84.972931	162.9554
138.000000	84.911674	162.9584
140.000000	84.868683	163.1412
143.000000	84.779015	163.2133
145.000000	84.706429	163.6575
147.500000	84.617355	163.7320
150.000000	84.562286	164.1791
152.500000	84.479492	164.1867
155.000000	84.406128	164.5259
157.500000	84.394218	164.7245
160.000000	84.311806	164.8911
162.500000	84.284393	165.1906
165.000000	84.232468	165.6701
167.500000	84.131660	165.9489
170.000000	84.085022	166.1702
172.500000	83.986824	166.3046
175.000000	83.951157	166.6405
177.500000	83.875343	166.9351
180.000000	83.810883	167.1113
182.500000	83.764488	167.5911
185.000000	83.725639	167.7643
187.500000	83.618515	168.0884
190.000000	83.572227	168.3521
192.500000	83.521149	168.4889
195.000000	83.427017	168.9112
197.500000	83.404274	169.1973
200.000000	83.360794	169.4700
203.000000	83.265732	169.9340
206.000000	83.189964	170.2096
209.000000	83.098175	170.4731
212.000000	83.109550	171.0794
214.000000	83.084145	171.4047
218.000000	82.937988	171.3602
220.000000	83.005753	172.6140
224.000000	82.887505	172.1698
227.000000	82.828941	172.8928
230.000000	82.800011	173.1201
233.000000	82.735947	173.4307
236.000000	82.707306	174.0378
240.000000	82.652550	174.1077
243.000000	82.630615	174.7883
247.000000	82.570892	175.3036
250.000000	82.499855	175.4885
254.000000	82.421570	176.2131
258.000000	82.415817	176.3538
262.000000	82.360367	177.2382
265.000000	82.322372	177.7370
269.000000	82.261917	178.1874
272.000000	82.229675	178.5161
276.000000	82.160683	179.0563
280.000000	82.118141	179.4961
285.000000	82.050385	179.9778
290.000000	82.015434	-179.2611
295.000000	81.968201	-178.9669
300.000000	81.914635	-178.0638
304.000000	81.875305	-177.5281
307.000000	81.849792	-177.0782
311.000000	81.807083	-176.6472
315.000000	81.771393	-176.0771
320.000000	81.732193	-175.5032
325.000000	81.663925	-174.7614
330.000000	81.639999	-174.2597
335.000000	81.594933	-173.5413
340.000000	81.571556	-173.0352
345.000000	81.512573	-172.4435
350.000000	81.482300	-171.8193
355.000000	81.431084	-171.1662
360.000000	81.379890	-170.5874
365.000000	81.343170	-169.8660
370.000000	81.324760	-169.3472
375.000000	81.289215	-168.7270
382.000000	81.243080	-167.9857
387.000000	81.228050	-167.2792
395.000000	81.175377	-166.3575
400.000000	81.147194	-165.7906
406.000000	81.112869	-164.9547
412.000000	81.092583	-164.2779
418.000000	81.064468	-163.5321
425.000000	81.034195	-162.8597
431.000000	81.004234	-162.0762
437.000000	80.980316	-161.3776
444.000000	80.959251	-160.5004
450.000000	80.952759	-159.8841
455.000000	80.921341	-159.3122
462.000000	80.901749	-158.6848
468.000000	80.884445	-157.9942
475.000000	80.861725	-157.2570
482.000000	80.822647	-156.5248
487.000000	80.829811	-155.9553
494.000000	80.803261	-155.2692
500.000000	80.792328	-154.6770
508.000000	80.722519	-153.6854
515.000000	80.744102	-152.9551
522.000000	80.711029	-152.2815
530.000000	80.719460	-151.3239
538.000000	80.674881	-150.4810
545.000000	80.664680	-149.4376
552.000000	80.657692	-148.7594
560.000000	80.643471	-147.9335
570.000000	80.607147	-146.8021
580.000000	80.601868	-145.7332
590.000000	80.574623	-144.5503
600.000000	80.568008	-143.3731
608.000000	80.563438	-142.5292
615.000000	80.551254	-141.7903
622.000000	80.558426	-141.0619
630.000000	80.552284	-140.0715
640.000000	80.548874	-138.9963
650.000000	80.548752	-137.9109
660.000000	80.552460	-136.8526
670.000000	80.563019	-135.7406
680.000000	80.549416	-134.6776
690.000000	80.551117	-133.4626
700.000000	80.567703	-132.3132
710.000000	80.560501	-131.2781
720.000000	80.568672	-130.0962
730.000000	80.592499	-128.9485
740.000000	80.606728	-127.8881
750.000000	80.625221	-126.7699
762.000000	80.631508	-125.4575
775.000000	80.666351	-123.8985
788.000000	80.679146	-122.5068
800.000000	80.713585	-121.1282
812.000000	80.739777	-119.7958
825.000000	80.772186	-118.3578
838.000000	80.818481	-116.8978
850.000000	80.855576	-115.5476
862.000000	80.905373	-114.1671
875.000000	80.957031	-112.7217
885.000000	81.000961	-111.6397
900.000000	81.078049	-109.9851
912.000000	81.141037	-108.7696
925.000000	81.217010	-107.3007
938.000000	81.300690	-105.9531
950.000000	81.370804	-104.5766
962.000000	81.463043	-103.4258
975.000000	81.544662	-102.0947
988.000000	81.657753	-100.8135
1000.000000	81.823486	-99.4210
1015.000000	81.855392	-98.2064
1030.000000	81.957497	-96.8143
1044.000000	82.069328	-95.6228
1060.000000	82.205627	-94.2377
1075.000000	82.339752	-93.0826
1090.000000	82.475388	-91.8475
1106.000000	82.628830	-90.6119
1120.000000	82.757507	-89.5840
1138.000000	82.928947	-88.3372
1150.000000	83.047943	-87.5821
1172.000000	83.239937	-86.1434
1180.000000	83.313805	-85.6979
1206.000000	83.556572	-84.1211
1220.000000	83.675880	-83.3157
1241.000000	83.872528	-82.1309
1250.000000	83.957840	-81.6290
1265.000000	84.104492	-80.7982
1280.000000	84.245491	-79.9649
1315.000000	84.593040	-78.2113
1320.000000	84.630127	-77.9933
1340.000000	84.825417	-77.2277
1360.000000	84.994972	-76.3521
1380.000000	85.166435	-75.5024
1400.000000	85.333397	-74.6522
1430.000000	85.568718	-73.3895
1450.000000	85.734375	-72.5720
1475.000000	85.936615	-71.5195
1500.000000	86.142960	-70.4930
1525.000000	86.349808	-69.4245
1550.000000	86.562614	-68.5424
1575.000000	86.784111	-67.5274
1600.000000	87.002632	-66.6155
1625.000000	87.227127	-65.7280
1650.000000	87.449997	-64.8253
1675.000000	87.684669	-64.0641
1700.000000	87.919395	-63.2507
1725.000000	88.158104	-62.5258
1750.000000	88.406174	-61.8769
1775.000000	88.647598	-61.2642
1800.000000	88.896927	-60.7551
1825.000000	89.145454	-60.3576
1850.000000	89.398643	-60.0157
1875.000000	89.646591	-59.7595
1900.000000	89.905029	-59.6280
1925.000000	90.146454	-59.5615
1950.000000	90.386581	-59.6371
1975.000000	90.608871	-59.8341
2000.000000	90.776680	-60.4017
2030.000000	91.110474	-60.5621
2060.000000	91.369957	-61.1438
2090.000000	91.591263	-61.9386
2120.000000	91.795609	-62.8936
2140.000000	91.912193	-63.5956
2180.000000	92.097771	-65.0559
2200.000000	92.168892	-65.8179
2240.000000	92.269943	-67.4979
2270.000000	92.296661	-68.9855
2300.000000	92.293365	-70.6044
2330.000000	92.264641	-72.1416
2360.000000	92.202621	-73.5493
2400.000000	92.087158	-74.9294
2430.000000	91.992722	-75.5831
2470.000000	91.863579	-75.6776
2500.000000	91.806442	-75.7279
2540.000000	91.744934	-76.0160
2580.000000	91.661926	-76.6178
2620.000000	91.521400	-77.2448
2650.000000	91.379425	-77.6116
2690.000000	91.165428	-77.8599
2720.000000	90.996803	-77.8385
2760.000000	90.767548	-77.5215
2800.000000	90.532257	-77.0762
2850.000000	90.249542	-76.2792
2900.000000	89.972107	-75.4004
2950.000000	89.696945	-74.1196
3000.000000	89.414726	-72.4062
3040.000000	89.241089	-71.3678
3070.000000	89.095161	-70.3392
3110.000000	88.919182	-68.8108
3150.000000	88.775009	-67.2339
3200.000000	88.604156	-65.2655
3250.000000	88.457520	-63.2837
3300.000000	88.323311	-61.2588
3350.000000	88.230492	-59.0752
3400.000000	88.129761	-56.8899
3450.000000	88.076263	-54.8846
3500.000000	88.026588	-52.7607
3550.000000	87.999886	-50.5971
3600.000000	87.994614	-48.4283
3650.000000	87.995010	-46.2968
3700.000000	88.015961	-44.2974
3750.000000	88.037689	-42.2278
3820.000000	88.082542	-39.2028
3870.000000	88.156906	-37.0961
3950.000000	88.259567	-33.8643
4000.000000	88.322968	-32.0171
4060.000000	88.477921	-29.4243
4120.000000	88.613251	-27.1788
4180.000000	88.765640	-24.9793
4250.000000	88.992500	-22.5358
4310.000000	89.175140	-20.5124
4370.000000	89.376358	-18.6476
4440.000000	89.624710	-16.4993
4500.000000	89.862640	-14.6490
4550.000000	90.073853	-13.1926
4620.000000	90.408302	-11.2119
4680.000000	90.738129	-9.6174
4750.000000	91.160446	-8.0805
4820.000000	91.632111	-6.9544
4870.000000	91.972824	-6.3898
4940.000000	92.487083	-6.1446
5000.000000	92.932777	-6.4427
5080.000000	93.546814	-7.1479
5150.000000	94.059288	-8.6305
5220.000000	94.532967	-10.8779
5300.000000	94.972656	-14.4394
5380.000000	95.252083	-18.7711
5450.000000	95.329529	-22.8839
5520.000000	95.199478	-27.0471
5600.000000	94.869553	-31.4198
5700.000000	94.204590	-35.5571
5800.000000	93.460922	-38.4515
5900.000000	92.672554	-39.6625
6000.000000	91.859184	-39.7542
6080.000000	91.244965	-39.1518
6150.000000	90.764145	-37.9784
6220.000000	90.324608	-36.5399
6300.000000	89.860443	-34.4731
6400.000000	89.393517	-31.6152
6500.000000	88.999756	-28.4201
6600.000000	88.698990	-24.9281
6700.000000	88.479385	-21.4065
6800.000000	88.329269	-17.6935
6900.000000	88.308090	-14.1147
7000.000000	88.385452	-10.5015
7100.000000	88.550568	-6.9330
7200.000000	88.819221	-3.7331
7300.000000	89.205490	-0.6494
7400.000000	89.678642	1.9256
7500.000000	90.290886	3.8835
7620.000000	91.153946	4.9507
7750.000000	92.241722	3.8332
7880.000000	93.351532	-0.8351
8000.000000	94.165497	-9.2611
8120.000000	94.343750	-20.8866
8250.000000	93.559875	-33.6064
8380.000000	92.039925	-42.5453
8500.000000	90.419540	-46.7351
8620.000000	88.840149	-47.9121
8750.000000	87.243698	-46.8050
8850.000000	86.128387	-44.8695
9000.000000	84.665031	-40.7717
9120.000000	83.640167	-36.7139
9250.000000	82.669601	-31.9498
9380.000000	81.846558	-26.9045
9500.000000	81.186615	-21.9348
9620.000000	80.598885	-17.1008
9750.000000	80.101357	-11.4425
9880.000000	79.703255	-6.0319
10000.000000	79.442291	-0.8902
10150.000000	79.228584	5.4541
10300.000000	79.174767	11.1226
10440.000000	79.307198	16.2447
10600.000000	79.572235	21.5865
10750.000000	80.027664	25.3701
10900.000000	80.665550	27.8908
11060.000000	81.495636	28.2153
11200.000000	82.306442	25.7647
11380.000000	83.080925	17.1018
11500.000000	83.106323	8.6421
11720.000000	81.718422	-6.6192
11800.000000	80.863251	-10.5338
12060.000000	77.720520	-15.3317
12200.000000	76.164177	-14.0053
12410.000000	74.150894	-9.7012
12500.000000	73.382576	-7.0197
12650.000000	72.255638	-2.0573
12800.000000	71.197151	2.3116
13150.000000	69.502388	18.0932
13200.000000	69.279297	20.4007
13400.000000	68.644440	28.5473
13600.000000	68.019958	37.4333
13800.000000	67.747269	45.7762
14000.000000	67.378998	54.0856
14300.000000	67.421585	66.7004
14500.000000	67.772171	75.7747
14750.000000	68.606789	85.2324
15000.000000	69.767181	92.6919
15250.000000	71.634605	96.5253
15500.000000	73.955742	91.3478
15750.000000	75.699257	71.8878
16000.000000	74.386345	47.4382
16250.000000	71.342628	36.4022
16500.000000	68.731956	36.4977
16750.000000	66.798325	41.1908
17000.000000	65.862854	46.8071
17250.000000	65.485657	51.8825
17500.000000	65.888344	52.5985
17750.000000	66.693932	43.8724
18000.000000	66.097931	17.8728
18250.000000	62.621212	-6.0100
18500.000000	58.320984	-12.7698
18750.000000	54.479839	-8.1487
19000.000000	50.483513	-3.5505
19250.000000	49.210396	8.0298
19500.000000	45.938156	19.3555
19750.000000	42.127029	25.4901
