* Measurement data measured by REW V5.20 Beta 60
* Source: Headset (USB-C to 3.5mm Headphone Jack Adapter), MICROPHONE (Master Volume), R, volume: 0.258
* Format: 256k Log Swept Sine, 1 sweep at -12.0 dBFS with no timing reference
* Dated: Mar 4, 2021 2:32:49 PM
* REW Settings:
*  C-weighting compensation: Off
*  Target level: 75.0 dB
* Note: ; 
* Measurement: Final A4000 R
* Smoothing: None
* Frequency Step: 1/48 octave
* Start Frequency: 20.000 Hz
*
* Freq(Hz)	SPL(dB)	Phase(degrees)
20.000000	89.271156	-155.5648
20.299999	89.322128	-156.4040
20.600000	89.354271	-157.2663
20.900000	89.366150	-158.0516
21.200001	89.371803	-158.7022
21.400000	89.378334	-159.0568
21.799999	89.406548	-159.6380
22.000000	89.430809	-159.9136
22.400000	89.496796	-160.5495
22.700001	89.545975	-161.0911
23.000000	89.586525	-161.6624
23.299999	89.619621	-162.2290
23.600000	89.645828	-162.7555
24.000000	89.675430	-163.3874
24.299999	89.698502	-163.8378
24.700001	89.729095	-164.4356
25.000000	89.748535	-164.8926
25.400000	89.768509	-165.5161
25.799999	89.777023	-166.1066
26.200001	89.777855	-166.6528
26.500000	89.776337	-167.0285
26.900000	89.772644	-167.4631
27.200001	89.773277	-167.7516
27.600000	89.784088	-168.1143
28.000000	89.804184	-168.5112
28.500000	89.833458	-169.1529
29.000000	89.842850	-169.9041
29.500000	89.825310	-170.6092
30.000000	89.796715	-171.1018
30.400000	89.788979	-171.3799
30.700001	89.795662	-171.5763
31.100000	89.815155	-171.9143
31.500000	89.833344	-172.3659
32.000000	89.834991	-172.9788
32.500000	89.820366	-173.5069
33.000000	89.810448	-173.9137
33.500000	89.814018	-174.3430
34.000000	89.812897	-174.8857
34.500000	89.791817	-175.4715
35.000000	89.750175	-175.9248
35.500000	89.715202	-176.2015
36.000000	89.704422	-176.4297
36.500000	89.705383	-176.7717
37.000000	89.698769	-177.2024
37.500000	89.681900	-177.6084
38.200001	89.662758	-178.0643
38.700001	89.659241	-178.4107
39.500000	89.650238	-179.0255
40.000000	89.640335	-179.3684
40.599998	89.631508	-179.7752
41.200001	89.621582	179.7933
41.799999	89.606705	179.3756
42.500000	89.586098	178.8992
43.099998	89.556290	178.4689
43.700001	89.516754	178.1522
44.400002	89.497025	177.8345
45.000000	89.479454	177.2515
45.500000	89.404442	176.7161
46.200001	89.253983	176.7977
46.799999	89.267609	177.4354
47.500000	89.423851	176.8430
48.200001	89.360382	174.9825
48.700001	89.147102	174.4081
49.400002	88.951553	175.5219
50.000000	89.045723	176.4112
50.799999	89.214012	175.6686
51.500000	89.196686	174.6768
52.200001	89.133026	174.1509
53.000000	89.051743	173.8439
53.799999	88.999107	174.0588
54.500000	89.043678	174.1116
55.200001	89.073441	173.4960
56.000000	88.991684	172.7559
57.000000	88.870178	172.4858
58.000000	88.776024	172.2103
59.000000	88.689896	172.2296
60.000000	88.715752	172.1345
60.799999	88.715813	171.5051
61.500000	88.655540	171.1495
62.200001	88.622948	171.2587
63.000000	88.661713	171.1407
64.000000	88.561539	170.4180
65.000000	88.392883	171.6459
66.000000	88.585907	172.5231
67.000000	88.622253	171.1619
68.000000	88.483986	170.5815
69.000000	88.363312	169.9796
70.000000	88.237907	170.0944
71.000000	88.276855	169.5145
72.000000	88.110733	168.7865
73.000000	88.087524	169.4572
74.000000	88.128426	168.9094
75.000000	88.045532	168.9314
76.199997	88.050331	168.6573
77.500000	87.886444	168.5094
78.800003	87.825142	168.5384
80.000000	87.741058	168.5767
81.199997	87.749496	168.5392
82.500000	87.719772	168.0541
83.800003	87.645287	168.1019
85.000000	87.644371	168.1754
86.199997	87.615387	168.0075
87.500000	87.524597	167.5013
88.500000	87.401649	167.8649
90.000000	87.430267	168.0228
91.199997	87.366165	168.0117
92.500000	87.377365	168.0170
93.800003	87.321587	167.8183
95.000000	87.231049	167.7799
96.199997	87.143921	168.2733
97.500000	87.122040	168.4921
98.800003	87.109825	168.7192
100.000000	87.084969	168.3130
101.500000	87.070320	168.5996
103.000000	87.030365	167.7917
104.400002	86.971619	168.0068
106.000000	86.950531	167.3663
107.500000	86.795197	167.6972
109.000000	86.775024	167.7042
110.599998	86.838593	167.9297
112.000000	86.627083	167.4681
113.800003	86.766869	167.7641
115.000000	86.589546	167.8871
117.199997	86.582703	167.6743
118.000000	86.544365	167.9672
120.599998	86.476364	168.3785
122.000000	86.421211	167.7413
124.099998	86.471306	169.4491
125.000000	86.524345	168.6578
126.500000	86.344070	168.4369
128.000000	86.313751	168.6581
131.500000	86.115311	168.0792
132.000000	86.075752	168.0623
134.000000	86.024261	168.1997
136.000000	85.955696	168.9968
138.000000	85.981026	169.1334
140.000000	85.902695	169.2172
143.000000	85.813461	169.6971
145.000000	85.795921	169.5276
147.500000	85.676941	169.4321
150.000000	85.641624	169.6946
152.500000	85.609192	170.2632
155.000000	85.579102	170.5032
157.500000	85.546463	170.5971
160.000000	85.494034	170.6097
162.500000	85.489418	170.9207
165.000000	85.415207	171.1081
167.500000	85.330238	171.4539
170.000000	85.281593	171.1420
172.500000	85.257187	171.6730
175.000000	85.236557	171.9861
177.500000	85.107475	172.2245
180.000000	85.075050	172.1602
182.500000	85.063431	172.3949
185.000000	84.983429	172.6910
187.500000	84.915504	172.9737
190.000000	84.886818	173.5677
192.500000	84.835075	173.2015
195.000000	84.824020	173.8951
197.500000	84.711067	174.1205
200.000000	84.661636	174.5110
203.000000	84.671608	174.4748
206.000000	84.646637	174.5197
209.000000	84.560860	175.1724
212.000000	84.509964	175.3980
214.000000	84.495682	175.3056
218.000000	84.531830	175.8688
220.000000	84.375801	176.3024
224.000000	84.214127	176.6108
227.000000	84.174820	178.0758
230.000000	84.261765	178.3802
233.000000	84.298767	177.7104
236.000000	84.290741	178.2779
240.000000	84.240562	177.7044
243.000000	84.207474	177.8263
247.000000	84.077774	178.0484
250.000000	84.083359	178.6517
254.000000	83.973633	178.9741
258.000000	83.905502	179.7786
262.000000	83.846527	179.6619
265.000000	83.910484	-179.4658
269.000000	83.889969	-178.9672
272.000000	83.770576	-178.3754
276.000000	83.733955	-178.0307
280.000000	83.706223	-177.8613
285.000000	83.612526	-177.2469
290.000000	83.637909	-177.0695
295.000000	83.610703	-176.1870
300.000000	83.516853	-175.4960
304.000000	83.440117	-175.5300
307.000000	83.471619	-175.6695
311.000000	83.450356	-174.3163
315.000000	83.422997	-173.6380
320.000000	83.493355	-173.7085
325.000000	83.286812	-173.4163
330.000000	83.268517	-172.3864
335.000000	83.119751	-172.7802
340.000000	83.065628	-171.8403
345.000000	83.261108	-171.6166
350.000000	83.219009	-170.8936
355.000000	83.104881	-170.7459
360.000000	83.169952	-170.2369
365.000000	83.065674	-169.0327
370.000000	83.033432	-169.3204
375.000000	83.070724	-168.5800
382.000000	82.950974	-167.9888
387.000000	83.008362	-167.3458
395.000000	82.910133	-166.7538
400.000000	82.835144	-166.5465
406.000000	82.723068	-165.4079
412.000000	82.783775	-164.8463
418.000000	82.694588	-164.5045
425.000000	82.668442	-164.3582
431.000000	82.673714	-163.6685
437.000000	82.666893	-162.8185
444.000000	82.641441	-162.7215
450.000000	82.583168	-161.6123
455.000000	82.599289	-161.2547
462.000000	82.527458	-160.5237
468.000000	82.532654	-160.0329
475.000000	82.479362	-159.4873
482.000000	82.427597	-158.9735
487.000000	82.396629	-158.5577
494.000000	82.418747	-158.1344
500.000000	82.332275	-157.4528
508.000000	82.325836	-156.5432
515.000000	82.306824	-156.2058
522.000000	82.262253	-155.4917
530.000000	82.192719	-154.5101
538.000000	82.191238	-153.7422
545.000000	82.149376	-153.3744
552.000000	82.116035	-152.5087
560.000000	82.078201	-151.6936
570.000000	82.036224	-150.8080
580.000000	82.005714	-149.7496
590.000000	81.973511	-148.7653
600.000000	81.934914	-147.8322
608.000000	81.893532	-146.9000
615.000000	81.886429	-146.3478
622.000000	81.871796	-145.6786
630.000000	81.847893	-144.7499
640.000000	81.823799	-143.8213
650.000000	81.808235	-142.8528
660.000000	81.768959	-141.8571
670.000000	81.793335	-140.8351
680.000000	81.718346	-140.5009
690.000000	81.665779	-139.3538
700.000000	81.689659	-137.5629
710.000000	81.678764	-136.7853
720.000000	81.654343	-135.6471
730.000000	81.649040	-134.5737
740.000000	81.634026	-133.6229
750.000000	81.612938	-132.5523
762.000000	81.604469	-131.2370
775.000000	81.593018	-129.9041
788.000000	81.577118	-128.4986
800.000000	81.578529	-127.2134
812.000000	81.573875	-125.8231
825.000000	81.567352	-124.5205
838.000000	81.600021	-123.0528
850.000000	81.593605	-121.9209
862.000000	81.608551	-120.3468
875.000000	81.617279	-119.1427
885.000000	81.635658	-118.0164
900.000000	81.679955	-116.3618
912.000000	81.701363	-115.1068
925.000000	81.746979	-113.6271
938.000000	81.798782	-112.2347
950.000000	81.845535	-111.0408
962.000000	81.899246	-109.8037
975.000000	81.957611	-108.4278
988.000000	82.031281	-107.1261
1000.000000	82.162910	-105.7555
1015.000000	82.140442	-104.5514
1030.000000	82.224403	-103.2903
1044.000000	82.287552	-101.9319
1060.000000	82.360382	-100.6731
1075.000000	82.393921	-99.3252
1090.000000	82.451027	-97.9988
1106.000000	82.461250	-96.2819
1120.000000	82.473953	-93.8591
1138.000000	83.020416	-90.4258
1150.000000	83.328949	-90.8886
1172.000000	83.476898	-91.1999
1180.000000	83.530968	-90.9656
1206.000000	83.645554	-89.8431
1220.000000	83.677475	-89.1137
1241.000000	83.859879	-87.9746
1250.000000	83.922455	-87.5410
1265.000000	84.031754	-86.7793
1280.000000	84.133713	-86.1253
1315.000000	84.359169	-84.6863
1320.000000	84.389832	-84.4228
1340.000000	84.498505	-83.7269
1360.000000	84.616653	-82.8382
1380.000000	84.694839	-82.3000
1400.000000	84.759476	-81.2271
1430.000000	84.881989	-80.0495
1450.000000	84.949745	-79.2070
1475.000000	85.049980	-78.1303
1500.000000	85.131180	-77.0632
1525.000000	85.231895	-76.0146
1550.000000	85.291946	-74.8440
1575.000000	85.323730	-73.8443
1600.000000	85.373810	-72.5100
1625.000000	85.454193	-71.0113
1650.000000	85.523621	-69.5042
1675.000000	85.613029	-68.1083
1700.000000	85.708351	-66.6756
1725.000000	85.814941	-65.2030
1750.000000	85.907043	-63.7534
1775.000000	86.005814	-62.4166
1800.000000	86.090965	-60.8843
1825.000000	86.195312	-59.5326
1850.000000	86.295700	-58.1435
1875.000000	86.398132	-56.5659
1900.000000	86.509468	-55.1184
1925.000000	86.620270	-53.4858
1950.000000	86.744316	-51.8139
1975.000000	86.871376	-50.2863
2000.000000	86.961517	-48.9639
2030.000000	87.266579	-46.8543
2060.000000	87.498535	-45.4434
2090.000000	87.711876	-44.0194
2120.000000	87.905647	-42.6228
2140.000000	88.020248	-41.7263
2180.000000	88.257187	-39.8314
2200.000000	88.381142	-38.8802
2240.000000	88.664078	-37.0843
2270.000000	88.867348	-36.1319
2300.000000	89.064316	-35.4268
2330.000000	89.280823	-34.6948
2360.000000	89.465691	-34.0438
2400.000000	89.750610	-32.7836
2430.000000	89.988785	-31.6513
2470.000000	90.312012	-30.1468
2500.000000	90.558006	-29.1944
2540.000000	90.885620	-28.0109
2580.000000	91.207970	-27.0194
2620.000000	91.543121	-26.1097
2650.000000	91.781364	-25.5642
2690.000000	92.102028	-24.9332
2720.000000	92.342590	-24.4991
2760.000000	92.648857	-24.0070
2800.000000	92.970131	-23.5909
2850.000000	93.368103	-23.4359
2900.000000	93.747810	-23.6389
2950.000000	94.108276	-24.0344
3000.000000	94.430023	-24.3942
3040.000000	94.666550	-25.3708
3070.000000	94.827782	-26.0331
3110.000000	95.012459	-26.8834
3150.000000	95.171143	-27.8064
3200.000000	95.340363	-28.9601
3250.000000	95.466728	-30.1761
3300.000000	95.560776	-31.3820
3350.000000	95.615707	-32.5415
3400.000000	95.639572	-33.6751
3450.000000	95.645645	-34.7119
3500.000000	95.629646	-35.6165
3550.000000	95.599487	-36.3605
3600.000000	95.550491	-37.0117
3650.000000	95.494072	-37.4703
3700.000000	95.432098	-37.8054
3750.000000	95.371346	-38.1026
3820.000000	95.276039	-38.4159
3870.000000	95.192184	-38.5502
3950.000000	95.035355	-38.6645
4000.000000	94.913116	-38.8174
4060.000000	94.808228	-38.4683
4120.000000	94.674973	-38.2486
4180.000000	94.540085	-37.9924
4250.000000	94.384392	-37.3350
4310.000000	94.241234	-36.8566
4370.000000	94.108337	-36.1588
4440.000000	93.959656	-35.1993
4500.000000	93.855385	-34.3055
4550.000000	93.779541	-33.4885
4620.000000	93.684334	-32.3657
4680.000000	93.617416	-31.3603
4750.000000	93.541779	-30.2528
4820.000000	93.476959	-29.1194
4870.000000	93.437332	-28.2883
4940.000000	93.379456	-27.1853
5000.000000	93.344162	-26.3294
5080.000000	93.322105	-24.8007
5150.000000	93.309807	-23.5693
5220.000000	93.306168	-22.4366
5300.000000	93.321014	-21.2032
5380.000000	93.339699	-20.0644
5450.000000	93.353760	-19.1145
5520.000000	93.333740	-18.2636
5600.000000	93.300461	-17.3544
5700.000000	93.261261	-16.2642
5800.000000	93.224945	-15.2319
5900.000000	93.177452	-14.2809
6000.000000	93.110405	-13.3445
6080.000000	93.074631	-12.5516
6150.000000	93.044136	-11.8422
6220.000000	93.020279	-11.0816
6300.000000	93.005608	-10.2509
6400.000000	92.998077	-9.1864
6500.000000	93.003098	-8.1824
6600.000000	93.008034	-7.2539
6700.000000	93.020393	-6.3510
6800.000000	93.042526	-5.4020
6900.000000	93.100853	-4.4719
7000.000000	93.205696	-3.5735
7100.000000	93.324013	-2.7201
7200.000000	93.490158	-1.9370
7300.000000	93.676910	-1.3122
7400.000000	93.908485	-0.9372
7500.000000	94.163704	-0.9330
7620.000000	94.508057	-1.3925
7750.000000	94.866364	-2.8162
7880.000000	95.195412	-5.2636
8000.000000	95.419861	-8.8277
8120.000000	95.544327	-13.2388
8250.000000	95.438271	-19.0281
8380.000000	95.052864	-25.0478
8500.000000	94.432549	-30.4675
8620.000000	93.597733	-34.9166
8750.000000	92.508018	-38.3737
8850.000000	91.599968	-40.0150
9000.000000	90.224007	-41.0075
9120.000000	89.157509	-40.7543
9250.000000	88.043320	-39.6044
9380.000000	86.987656	-37.7794
9500.000000	86.061440	-35.6349
9620.000000	85.199585	-32.9437
9750.000000	84.340546	-29.6649
9880.000000	83.579033	-26.1445
10000.000000	82.904350	-22.8111
10150.000000	82.162468	-18.3182
10300.000000	81.524712	-13.8024
10440.000000	80.949760	-9.5348
10600.000000	80.372032	-4.5999
10750.000000	79.933228	0.1400
10900.000000	79.559608	4.8016
11060.000000	79.215981	9.8700
11200.000000	79.014297	14.1331
11380.000000	78.831711	19.3157
11500.000000	78.770966	22.7901
11720.000000	78.793007	28.6605
11800.000000	78.839256	30.5545
12060.000000	79.174843	36.1835
12200.000000	79.396324	38.6383
12410.000000	79.980080	40.9869
12500.000000	80.283951	41.6372
12650.000000	80.803093	41.9522
12800.000000	81.321182	41.0319
13150.000000	82.223495	33.6315
13200.000000	82.277603	32.1053
13400.000000	82.187241	25.4283
13600.000000	81.614967	19.5119
13800.000000	80.711548	15.9286
14000.000000	79.734596	15.0260
14300.000000	78.562355	19.1690
14500.000000	78.348984	23.4456
14750.000000	78.742279	27.5410
15000.000000	79.459579	27.8119
15250.000000	80.248047	24.7567
15500.000000	80.899017	19.8778
15750.000000	81.692253	13.4011
16000.000000	82.869194	3.8586
16250.000000	84.220085	-13.0642
16500.000000	84.681198	-41.3758
16750.000000	82.567238	-71.5673
17000.000000	79.192406	-90.3063
17250.000000	76.003349	-100.4736
17500.000000	73.333992	-106.4127
17750.000000	71.065086	-112.5430
18000.000000	68.991852	-120.4863
18250.000000	67.492287	-130.2339
18500.000000	66.054756	-139.6478
18750.000000	64.995277	-148.4136
19000.000000	64.200760	-156.8148
19250.000000	63.546120	-168.9055
19500.000000	63.008171	176.9114
19750.000000	62.588055	158.0900
