* Measurement data measured by REW V5.20 Beta 60
* Source: Headset (USB-C to 3.5mm Headphone Jack Adapter), MICROPHONE (Master Volume), R, volume: 0.000
* Format: 256k Log Swept Sine, 1 sweep at -12.0 dBFS with no timing reference
* Dated: Dec 12, 2020 6:25:26 PM
* REW Settings:
*  C-weighting compensation: Off
*  Target level: 75.0 dB
* Note: ; 
* Measurement: Gold Planar GL20 L
* Smoothing: None
* Frequency Step: 1/48 octave
* Start Frequency: 20.000 Hz
*
* Freq(Hz)	SPL(dB)	Phase(degrees)
20.000000	79.467979	177.9283
20.299999	79.463387	177.4633
20.600000	79.439789	177.2523
20.900000	79.419472	177.3307
21.200001	79.427544	177.5937
21.400000	79.447418	177.7874
21.799999	79.502655	178.1546
22.000000	79.529015	178.3318
22.400000	79.568626	178.7986
22.700001	79.598717	179.4459
23.000000	79.668602	-179.5987
23.299999	79.818504	-178.5677
23.600000	80.051018	-177.8116
24.000000	80.438499	-177.8018
24.299999	80.704781	-178.7663
24.700001	80.906128	178.8824
25.000000	80.879105	176.8244
25.400000	80.585899	174.6245
25.799999	80.090683	174.3114
26.200001	79.659378	176.5656
26.500000	79.569977	179.2830
26.900000	79.826874	-177.6273
27.200001	80.164375	-176.8809
27.600000	80.529266	-178.1242
28.000000	80.581085	179.4411
28.500000	80.215607	177.5546
29.000000	79.821587	178.9007
29.500000	79.891632	-178.6953
30.000000	80.200928	-179.1339
30.400000	80.202751	178.6230
30.700001	79.955101	177.0627
31.100000	79.414185	177.0478
31.500000	79.012047	-179.8822
32.000000	79.253670	-175.1131
32.500000	79.959183	-174.6786
33.000000	80.312439	-178.0849
33.500000	80.118378	178.5757
34.000000	79.767685	177.9308
34.500000	79.740295	178.4271
35.000000	79.908562	176.9280
35.500000	79.780319	173.5079
36.000000	79.183342	171.2460
36.500000	78.463135	172.8611
37.000000	78.242928	177.4419
37.500000	78.629189	-179.1231
38.200001	79.339333	-179.1740
38.700001	79.588745	178.9546
39.500000	79.504494	176.8846
40.000000	79.394600	177.5917
40.599998	79.577156	179.2505
41.200001	79.933968	178.4076
41.799999	79.848381	175.5895
42.500000	79.061569	176.0528
43.099998	78.821495	-177.9028
43.700001	79.466583	-173.9191
44.400002	80.143913	-175.7806
45.000000	80.123848	-178.7764
45.500000	79.853134	179.9741
46.200001	79.413628	-179.5402
46.799999	79.171066	-177.4079
47.500000	79.289291	-174.3650
48.200001	79.699203	-173.4354
48.700001	79.940323	-174.0795
49.400002	80.149727	-175.5154
50.000000	80.229095	-177.2670
50.799999	79.974495	-179.5811
51.500000	79.544563	-178.6133
52.200001	79.506332	-175.4978
53.000000	79.854660	-174.0965
53.799999	80.066589	-174.9564
54.500000	80.048660	-176.4454
55.200001	79.746582	-177.5113
56.000000	79.360855	-175.5412
57.000000	79.712486	-173.1092
58.000000	79.872910	-175.9612
59.000000	79.543602	-176.5110
60.000000	79.506859	-175.8782
60.799999	79.390320	-175.3643
61.500000	79.421333	-173.4487
62.200001	79.790466	-172.4527
63.000000	80.148102	-174.4988
64.000000	79.978333	-177.6751
65.000000	79.619583	-178.0812
66.000000	79.410637	-176.7162
67.000000	79.591553	-175.0544
68.000000	79.772133	-175.6053
69.000000	79.809097	-175.1839
70.000000	79.850357	-175.3652
71.000000	79.673477	-173.6448
72.000000	79.855759	-172.9404
73.000000	79.457703	-172.5116
74.000000	79.738976	-170.2210
75.000000	79.331451	-175.7177
76.199997	78.468956	-166.1199
77.500000	80.045013	-170.9959
78.800003	79.347519	-174.1983
80.000000	79.633080	-174.8448
81.199997	79.450424	-174.8376
82.500000	79.734413	-173.3084
83.800003	79.989639	-175.1439
85.000000	79.593254	-175.5254
86.199997	79.782242	-173.8536
87.500000	79.646263	-175.6797
88.500000	79.594261	-173.8617
90.000000	79.708443	-174.9912
91.199997	79.632027	-173.1615
92.500000	79.804886	-174.1683
93.800003	79.605682	-173.5102
95.000000	79.668282	-173.6979
96.199997	79.379745	-172.5986
97.500000	79.759003	-169.9366
98.800003	79.894676	-172.1632
100.000000	79.656540	-171.7524
101.500000	79.600189	-172.1043
103.000000	79.495712	-170.8042
104.400002	79.499084	-174.2277
106.000000	79.342163	-170.2981
107.500000	79.660477	-172.6124
109.000000	79.781998	-171.7281
110.599998	79.625038	-172.2801
112.000000	79.649010	-171.2043
113.800003	79.681862	-171.5936
115.000000	79.651237	-171.4900
117.199997	79.693779	-170.8558
118.000000	79.953827	-172.3986
120.599998	79.735168	-168.0066
122.000000	80.034531	-173.6712
124.099998	79.851624	-173.0290
125.000000	79.702576	-173.5120
126.500000	79.673996	-171.0202
128.000000	79.521805	-170.3136
131.500000	79.751244	-168.9061
132.000000	79.735458	-169.1937
134.000000	79.984406	-168.7019
136.000000	79.651703	-167.4581
138.000000	79.689278	-167.0677
140.000000	79.708862	-169.9210
143.000000	79.468353	-170.0068
145.000000	79.866623	-168.6568
147.500000	80.369568	-168.3916
150.000000	79.958084	-170.8795
152.500000	80.014282	-169.8894
155.000000	80.089325	-167.8027
157.500000	80.206543	-165.5489
160.000000	79.656761	-164.9895
162.500000	79.640190	-167.9630
165.000000	79.984787	-167.0488
167.500000	79.916298	-166.5714
170.000000	79.772278	-165.3454
172.500000	79.735870	-167.4099
175.000000	79.659912	-167.9321
177.500000	80.069313	-166.2226
180.000000	79.955399	-164.0260
182.500000	79.913345	-165.0896
185.000000	79.865341	-165.9630
187.500000	79.984451	-164.8400
190.000000	79.956665	-164.2397
192.500000	79.974930	-164.4967
195.000000	79.871490	-164.4467
197.500000	80.000534	-163.4647
200.000000	80.022224	-163.6689
203.000000	79.935188	-163.8689
206.000000	79.946777	-163.5764
209.000000	80.055397	-163.5926
212.000000	80.006859	-163.3956
214.000000	79.991333	-163.2827
218.000000	80.024017	-162.6372
220.000000	80.010620	-162.6152
224.000000	80.039909	-162.7727
227.000000	80.077782	-161.8536
230.000000	80.013451	-161.1772
233.000000	80.110504	-161.6035
236.000000	80.200684	-161.3476
240.000000	80.208870	-161.2646
243.000000	80.247055	-161.7506
247.000000	80.380371	-159.5672
250.000000	80.257706	-157.9928
254.000000	80.087555	-158.6680
258.000000	80.279831	-159.8346
262.000000	80.300690	-159.1703
265.000000	80.378525	-158.0485
269.000000	80.392143	-158.5907
272.000000	80.321968	-160.5633
276.000000	80.466042	-160.4593
280.000000	80.219925	-161.0470
285.000000	79.850937	-158.3762
290.000000	80.273308	-153.8185
295.000000	80.960770	-155.8426
300.000000	80.875908	-152.3577
304.000000	80.184929	-153.0554
307.000000	80.635071	-156.5367
311.000000	80.611282	-156.0859
315.000000	80.551277	-155.6067
320.000000	80.617012	-155.4595
325.000000	80.628517	-155.1513
330.000000	80.669258	-154.6857
335.000000	80.669548	-154.0351
340.000000	80.710686	-154.0960
345.000000	80.788902	-153.9138
350.000000	80.894386	-153.2415
355.000000	80.766083	-152.5985
360.000000	80.883797	-152.4199
365.000000	80.961952	-151.9834
370.000000	81.005135	-151.9177
375.000000	81.230957	-152.2721
382.000000	81.193977	-151.3776
387.000000	81.378494	-150.8236
395.000000	81.236435	-151.3822
400.000000	81.456459	-150.5058
406.000000	81.360802	-149.9121
412.000000	81.486580	-150.6203
418.000000	81.589088	-150.0217
425.000000	81.609146	-150.2152
431.000000	81.653221	-147.8376
437.000000	81.700951	-147.9458
444.000000	82.029419	-147.4242
450.000000	82.171265	-150.9677
455.000000	81.729675	-150.7089
462.000000	82.057190	-148.9823
468.000000	82.105469	-148.5842
475.000000	82.045578	-147.7462
482.000000	82.272072	-148.1510
487.000000	82.295631	-147.8151
494.000000	82.480736	-149.2327
500.000000	82.454422	-147.8444
508.000000	82.491943	-147.6033
515.000000	82.690193	-147.8587
522.000000	82.688721	-147.4166
530.000000	82.835007	-147.1661
538.000000	82.970985	-147.6727
545.000000	82.978378	-148.1098
552.000000	83.120949	-148.0061
560.000000	83.239487	-147.8822
570.000000	83.194565	-148.5036
580.000000	83.418983	-149.0637
590.000000	83.490387	-150.2645
600.000000	83.691841	-150.5965
608.000000	83.500237	-150.0194
615.000000	83.378342	-150.6912
622.000000	83.412659	-151.1050
630.000000	83.482803	-151.1911
640.000000	83.452164	-151.3703
650.000000	83.434074	-151.1996
660.000000	83.155266	-150.1134
670.000000	83.082947	-149.9427
680.000000	83.207809	-148.2051
690.000000	83.250496	-147.5223
700.000000	83.492477	-146.2080
710.000000	83.582901	-145.3864
720.000000	83.648392	-145.0331
730.000000	83.918190	-144.7093
740.000000	84.016006	-143.4814
750.000000	84.246788	-143.7250
762.000000	84.452339	-143.6454
775.000000	84.615517	-143.2403
788.000000	84.813538	-143.5676
800.000000	85.103737	-144.2397
812.000000	85.336792	-144.6070
825.000000	85.530777	-145.2250
838.000000	85.638718	-146.9060
850.000000	85.926384	-146.8897
862.000000	86.083862	-147.7739
875.000000	86.178360	-148.2488
885.000000	86.314613	-149.8315
900.000000	86.407799	-150.7215
912.000000	86.521996	-151.2843
925.000000	86.644142	-152.6429
938.000000	86.713272	-153.9768
950.000000	86.799995	-154.5022
962.000000	86.952835	-155.2773
975.000000	86.773491	-155.8222
988.000000	86.978127	-156.8792
1000.000000	86.977234	-157.6358
1015.000000	86.929886	-159.7252
1030.000000	86.895782	-160.5130
1044.000000	87.015617	-161.5285
1060.000000	86.822891	-162.5583
1075.000000	86.872200	-163.6321
1090.000000	87.054909	-164.4136
1106.000000	86.932556	-165.6589
1120.000000	86.968559	-164.7801
1138.000000	87.172745	-167.1255
1150.000000	87.112366	-167.3434
1172.000000	87.256126	-169.0943
1180.000000	87.210930	-169.6051
1206.000000	87.214249	-171.1880
1220.000000	87.387894	-173.2015
1241.000000	87.293243	-174.2292
1250.000000	87.346474	-174.0259
1265.000000	87.363518	-176.1639
1280.000000	87.369530	-178.9574
1315.000000	87.263611	178.6857
1320.000000	87.224953	177.3208
1340.000000	87.232559	176.2502
1360.000000	87.132248	174.1116
1380.000000	86.891602	171.9497
1400.000000	86.738831	170.9626
1430.000000	86.543182	167.5840
1450.000000	86.409180	167.4537
1475.000000	86.043663	165.4953
1500.000000	85.763412	163.8509
1525.000000	85.565758	162.2857
1550.000000	85.245453	160.5631
1575.000000	84.993835	159.7435
1600.000000	84.630424	159.7766
1625.000000	84.402740	158.0980
1650.000000	84.063698	157.7123
1675.000000	83.859535	157.3306
1700.000000	83.436958	156.8499
1725.000000	83.211212	155.8932
1750.000000	82.850685	156.4509
1775.000000	82.539085	156.6522
1800.000000	82.260056	156.2697
1825.000000	82.106918	156.5031
1850.000000	81.699799	156.4421
1875.000000	81.382065	156.4866
1900.000000	80.960083	157.5288
1925.000000	80.703979	156.7977
1950.000000	80.576218	158.5873
1975.000000	80.007401	159.0571
2000.000000	79.951248	159.5120
2030.000000	79.315887	160.6517
2060.000000	79.388222	163.9737
2090.000000	79.126427	163.0934
2120.000000	79.178047	165.6773
2140.000000	78.850266	167.9336
2180.000000	78.859489	168.3582
2200.000000	78.680573	168.1183
2240.000000	78.413933	170.8940
2270.000000	78.185616	171.3506
2300.000000	77.868317	173.4839
2330.000000	78.204575	173.3810
2360.000000	78.187309	172.4252
2400.000000	77.990822	173.9678
2430.000000	77.990082	175.7004
2470.000000	77.836441	176.0698
2500.000000	77.809731	176.8349
2540.000000	77.752533	176.9777
2580.000000	77.507988	177.3526
2620.000000	76.894531	-178.7444
2650.000000	77.358261	-179.4175
2690.000000	77.286903	-178.2611
2720.000000	76.890823	-179.1443
2760.000000	76.783562	-176.9428
2800.000000	76.555290	-175.8918
2850.000000	77.133385	-170.5205
2900.000000	76.977936	-170.5185
2950.000000	76.575317	-171.2541
3000.000000	76.370895	-166.4285
3040.000000	76.737190	-166.6627
3070.000000	76.408310	-169.1423
3110.000000	77.208664	-164.3810
3150.000000	76.406082	-158.6145
3200.000000	77.019974	-159.0425
3250.000000	77.285294	-157.9033
3300.000000	77.087524	-158.0224
3350.000000	76.654388	-158.8373
3400.000000	76.553032	-154.7702
3450.000000	76.880501	-154.2636
3500.000000	77.168526	-155.7718
3550.000000	77.293419	-155.7226
3600.000000	77.963760	-149.2290
3650.000000	77.714203	-156.8989
3700.000000	77.413040	-156.0028
3750.000000	77.982254	-156.6983
3820.000000	78.466164	-154.7665
3870.000000	77.772034	-157.7324
3950.000000	78.640732	-162.3138
4000.000000	78.620247	-163.5502
4060.000000	78.249756	-165.2249
4120.000000	78.744293	-166.1064
4180.000000	78.315086	-167.3149
4250.000000	78.194023	-166.9418
4310.000000	77.780792	-170.2868
4370.000000	77.907570	-173.5778
4440.000000	76.557533	178.2004
4500.000000	75.428947	-178.6122
4550.000000	76.889244	-179.6290
4620.000000	77.585083	-171.5083
4680.000000	76.350479	-164.8441
4750.000000	75.510544	-173.2919
4820.000000	75.163330	-179.7144
4870.000000	75.005707	-170.8074
4940.000000	74.908890	-173.1592
5000.000000	74.532448	-174.7594
5080.000000	73.954407	-172.9690
5150.000000	73.439949	-172.5475
5220.000000	73.217773	-171.7412
5300.000000	73.046967	-166.1699
5380.000000	72.355759	-161.4735
5450.000000	72.770973	-157.8548
5520.000000	71.993134	-161.8916
5600.000000	72.446289	-156.6371
5700.000000	72.702812	-153.6762
5800.000000	72.696129	-148.9378
5900.000000	71.839897	-143.1941
6000.000000	73.022758	-141.4692
6080.000000	73.345047	-139.8426
6150.000000	73.339828	-135.6160
6220.000000	72.883888	-134.4538
6300.000000	73.142059	-134.3914
6400.000000	73.395813	-132.5990
6500.000000	73.441658	-130.2578
6600.000000	74.136635	-129.5494
6700.000000	75.282547	-120.5151
6800.000000	75.060905	-118.4335
6900.000000	76.241379	-118.9941
7000.000000	76.594452	-117.9144
7100.000000	77.781952	-117.8264
7200.000000	79.071236	-120.2662
7300.000000	80.210960	-122.2951
7400.000000	81.148849	-126.9574
7500.000000	82.275360	-131.0193
7620.000000	83.204712	-141.6237
7750.000000	83.773750	-151.4156
7880.000000	83.749504	-162.4252
8000.000000	83.540459	-171.9939
8120.000000	83.217903	-178.5627
8250.000000	82.909767	174.1741
8380.000000	82.144890	166.9857
8500.000000	81.468040	160.4077
8620.000000	80.614906	157.0071
8750.000000	79.740158	153.4397
8850.000000	78.884758	151.8127
9000.000000	78.122749	151.7148
9120.000000	77.518738	151.7978
9250.000000	77.066711	151.5911
9380.000000	76.637810	152.5662
9500.000000	76.403259	152.9807
9620.000000	76.307007	154.3088
9750.000000	76.365669	154.3039
9880.000000	76.504143	154.0265
10000.000000	76.819824	153.2482
10150.000000	77.405357	151.3030
10300.000000	78.079926	145.4219
10440.000000	78.696671	136.4061
10600.000000	78.555115	120.5778
10750.000000	77.165237	107.3609
10900.000000	75.044907	99.6179
11060.000000	72.696838	99.7947
11200.000000	71.192245	103.8947
11380.000000	70.340218	112.3492
11500.000000	70.348991	118.3986
11720.000000	71.142624	121.0814
11800.000000	71.462952	119.6351
12060.000000	71.637634	110.6678
12200.000000	71.325226	105.1573
12410.000000	70.319717	100.4712
12500.000000	69.930939	99.7461
12650.000000	69.276230	99.2137
12800.000000	68.705513	100.1272
13150.000000	67.952759	104.0383
13200.000000	67.890228	104.9950
13400.000000	67.949341	108.7596
13600.000000	68.275955	112.0285
13800.000000	68.894585	115.5403
14000.000000	69.897491	117.1107
14300.000000	72.122635	118.2921
14500.000000	74.166992	114.1809
14750.000000	77.020462	100.1885
15000.000000	78.672295	72.9546
15250.000000	77.849503	46.6815
15500.000000	76.272812	30.9799
15750.000000	75.391998	21.4570
16000.000000	75.310089	12.7085
16250.000000	75.737022	-1.6378
16500.000000	76.040375	-24.1229
16750.000000	74.727448	-51.4534
17000.000000	71.946648	-73.5315
17250.000000	68.887436	-86.3002
17500.000000	66.407646	-95.1643
17750.000000	64.139252	-102.5468
18000.000000	62.342934	-113.1340
18250.000000	60.805382	-122.2389
18500.000000	59.232475	-132.4642
18750.000000	58.390442	-142.4803
19000.000000	57.364368	-149.2469
19250.000000	56.404999	-161.7479
19500.000000	55.754837	-169.9160
19750.000000	54.704590	176.2904
