* Measurement data measured by REW V5.20 Beta 60
* Source: Headset (USB-C to 3.5mm Headphone Jack Adapter), MICROPHONE (Master Volume), R, volume: 0.258
* Format: 256k Log Swept Sine, 1 sweep at -12.0 dBFS with no timing reference
* Dated: Mar 18, 2021 5:06:06 PM
* REW Settings:
*  C-weighting compensation: Off
*  Target level: 75.0 dB
* Note: ; 
* Measurement: Kinboofi KBF MK6 L
* Smoothing: None
* Frequency Step: 1/48 octave
* Start Frequency: 20.000 Hz
*
* Freq(Hz)	SPL(dB)	Phase(degrees)
20.000000	86.443939	-145.9960
20.299999	86.429840	-146.1804
20.600000	86.439941	-146.2426
20.900000	86.473404	-146.3165
21.200001	86.521973	-146.5325
21.400000	86.549973	-146.7637
21.799999	86.581375	-147.3496
22.000000	86.582527	-147.6542
22.400000	86.565804	-148.1839
22.700001	86.548798	-148.4433
23.000000	86.544418	-148.6249
23.299999	86.558533	-148.8327
23.600000	86.582138	-149.1186
24.000000	86.610016	-149.6343
24.299999	86.620224	-150.0522
24.700001	86.625221	-150.5033
25.000000	86.639381	-150.7229
25.400000	86.697090	-150.9657
25.799999	86.794968	-151.3700
26.200001	86.898369	-152.1101
26.500000	86.951492	-152.8300
26.900000	86.968765	-153.7616
27.200001	86.951401	-154.2515
27.600000	86.925446	-154.4824
28.000000	86.944000	-154.3436
28.500000	87.059464	-154.2073
29.000000	87.210602	-154.5977
29.500000	87.309158	-155.4179
30.000000	87.328270	-156.1361
30.400000	87.324371	-156.4416
30.700001	87.330132	-156.5497
31.100000	87.355301	-156.7129
31.500000	87.382820	-157.0155
32.000000	87.382668	-157.4823
32.500000	87.348717	-157.7500
33.000000	87.333710	-157.6884
33.500000	87.376610	-157.6035
34.000000	87.451973	-157.8492
34.500000	87.508865	-158.4414
35.000000	87.518784	-159.0872
35.500000	87.502937	-159.5326
36.000000	87.497391	-159.7431
36.500000	87.524414	-159.8944
37.000000	87.577461	-160.1996
37.500000	87.622803	-160.7735
38.200001	87.597214	-161.6552
38.700001	87.531540	-161.8533
39.500000	87.526306	-161.4449
40.000000	87.589256	-161.4430
40.599998	87.622261	-161.8187
41.200001	87.608124	-161.8340
41.799999	87.673187	-161.5545
42.500000	87.820129	-162.1083
43.099998	87.819580	-163.1462
43.700001	87.735657	-163.4766
44.400002	87.758347	-163.3069
45.000000	87.826790	-163.9746
45.500000	87.772858	-164.7620
46.200001	87.609627	-164.6204
46.799999	87.645027	-163.6500
47.500000	87.847504	-163.7209
48.200001	87.914757	-164.7471
48.700001	87.889587	-165.1205
49.400002	87.906021	-165.1908
50.000000	87.940536	-165.4993
50.799999	87.916344	-165.8487
51.500000	87.925049	-165.6060
52.200001	88.005386	-165.6327
53.000000	88.052269	-166.2049
53.799999	88.037598	-166.6265
54.500000	88.026184	-166.8926
55.200001	88.006332	-167.1607
56.000000	87.982758	-167.2699
57.000000	88.014648	-167.3544
58.000000	88.066101	-167.8635
59.000000	88.054924	-168.4539
60.000000	88.030861	-168.5363
60.799999	88.061913	-168.4938
61.500000	88.102455	-168.7146
62.200001	88.103325	-169.0289
63.000000	88.088295	-169.0866
64.000000	88.130753	-169.2254
65.000000	88.126923	-169.7014
66.000000	88.118874	-169.8492
67.000000	88.124840	-170.2569
68.000000	88.091927	-170.3119
69.000000	88.152573	-170.2870
70.000000	88.200737	-170.7276
71.000000	88.212189	-171.1905
72.000000	88.175217	-171.3640
73.000000	88.246559	-171.1392
74.000000	88.320320	-172.2480
75.000000	88.129662	-172.6666
76.199997	88.175774	-171.4574
77.500000	88.280312	-172.1942
78.800003	88.252655	-172.4258
80.000000	88.259674	-172.5149
81.199997	88.276886	-172.7619
82.500000	88.282951	-172.8779
83.800003	88.308792	-173.3179
85.000000	88.288834	-173.4199
86.199997	88.319244	-173.5713
87.500000	88.314919	-173.8648
88.500000	88.314949	-173.8892
90.000000	88.337318	-174.2581
91.199997	88.327156	-174.3160
92.500000	88.349045	-174.8463
93.800003	88.299377	-174.7780
95.000000	88.368729	-175.1877
96.199997	88.268654	-175.4920
97.500000	88.323036	-175.0829
98.800003	88.324646	-175.5953
100.000000	88.330032	-175.4837
101.500000	88.345879	-175.9341
103.000000	88.335747	-176.0081
104.400002	88.340492	-176.2282
106.000000	88.349823	-176.5217
107.500000	88.313408	-176.6523
109.000000	88.319389	-176.7896
110.599998	88.306503	-176.8842
112.000000	88.304718	-176.9737
113.800003	88.330215	-177.2282
115.000000	88.330009	-177.3783
117.199997	88.334442	-177.6894
118.000000	88.334457	-177.7679
120.599998	88.333313	-178.0807
122.000000	88.323883	-178.1958
124.099998	88.329262	-178.3030
125.000000	88.336876	-178.3555
126.500000	88.337692	-178.6830
128.000000	88.321793	-178.7067
131.500000	88.303780	-179.2666
132.000000	88.295692	-179.2511
134.000000	88.313446	-179.4681
136.000000	88.320709	-179.5240
138.000000	88.300407	-179.7156
140.000000	88.301453	-179.9138
143.000000	88.274963	179.8060
145.000000	88.252235	179.6927
147.500000	88.241272	179.5531
150.000000	88.234123	179.2820
152.500000	88.228134	179.0638
155.000000	88.219154	178.9550
157.500000	88.210548	178.6927
160.000000	88.215736	178.4861
162.500000	88.219231	178.3616
165.000000	88.208611	178.1606
167.500000	88.210495	177.9228
170.000000	88.192116	177.7931
172.500000	88.181412	177.6204
175.000000	88.159004	177.4875
177.500000	88.138611	177.3315
180.000000	88.130844	177.1492
182.500000	88.100922	177.0044
185.000000	88.064056	176.8331
187.500000	88.044609	176.7210
190.000000	88.042580	176.5875
192.500000	88.005852	176.3408
195.000000	87.998535	176.2327
197.500000	87.967735	176.1893
200.000000	87.962265	176.0529
203.000000	87.931046	175.8890
206.000000	87.880562	175.7304
209.000000	87.864975	175.7079
212.000000	87.868301	175.5464
214.000000	87.834084	175.4631
218.000000	87.802788	175.3618
220.000000	87.808022	175.0696
224.000000	87.833786	174.7810
227.000000	87.807152	174.7765
230.000000	87.781235	174.6426
233.000000	87.768562	174.4323
236.000000	87.758148	174.3437
240.000000	87.733826	174.1978
243.000000	87.713905	174.0207
247.000000	87.698181	173.9305
250.000000	87.673119	173.7552
254.000000	87.650864	173.6671
258.000000	87.611786	173.5489
262.000000	87.586632	173.3895
265.000000	87.556038	173.2973
269.000000	87.531654	173.1786
272.000000	87.511711	173.0481
276.000000	87.483902	172.9130
280.000000	87.463303	172.8673
285.000000	87.421371	172.6805
290.000000	87.395889	172.5252
295.000000	87.334770	172.3357
300.000000	87.324982	172.2575
304.000000	87.299408	172.2292
307.000000	87.277702	172.1540
311.000000	87.237053	172.0808
315.000000	87.222832	171.9901
320.000000	87.170807	171.9477
325.000000	87.177238	171.7782
330.000000	87.119019	171.8448
335.000000	87.083656	171.5544
340.000000	87.041733	171.6194
345.000000	87.014618	171.4579
350.000000	87.004295	171.4138
355.000000	86.947960	171.2428
360.000000	86.912422	171.2719
365.000000	86.878441	171.3217
370.000000	86.848755	171.1489
375.000000	86.810966	171.0544
382.000000	86.779137	171.0312
387.000000	86.741287	170.8472
395.000000	86.698219	170.8010
400.000000	86.663322	170.7964
406.000000	86.628815	170.7386
412.000000	86.615685	170.6899
418.000000	86.576401	170.8596
425.000000	86.527534	170.6294
431.000000	86.540161	170.7795
437.000000	86.503799	170.5388
444.000000	86.404007	170.5721
450.000000	86.435448	170.6348
455.000000	86.408569	170.5186
462.000000	86.360748	170.4039
468.000000	86.307518	170.3335
475.000000	86.287048	170.2261
482.000000	86.245369	170.1281
487.000000	86.211899	170.0873
494.000000	86.190025	170.1138
500.000000	86.152512	170.0798
508.000000	86.118835	170.1178
515.000000	86.048027	170.1132
522.000000	86.030365	170.1935
530.000000	85.978546	170.1769
538.000000	85.928253	170.1511
545.000000	85.891846	170.2652
552.000000	85.859421	170.3922
560.000000	85.839630	170.2570
570.000000	85.767792	170.4717
580.000000	85.715279	170.4740
590.000000	85.653328	170.6362
600.000000	85.600266	170.7769
608.000000	85.561394	170.8690
615.000000	85.533447	170.9341
622.000000	85.499619	171.0673
630.000000	85.470963	171.2028
640.000000	85.432877	171.3310
650.000000	85.400452	171.4253
660.000000	85.341362	171.6006
670.000000	85.303062	171.7579
680.000000	85.271965	171.9758
690.000000	85.221771	172.1300
700.000000	85.190735	172.3151
710.000000	85.152359	172.5027
720.000000	85.109703	172.7465
730.000000	85.091339	172.9424
740.000000	85.055862	173.1306
750.000000	85.027252	173.3353
762.000000	84.985382	173.6813
775.000000	84.940643	174.0074
788.000000	84.904663	174.3427
800.000000	84.874786	174.6237
812.000000	84.845520	174.9567
825.000000	84.817047	175.3021
838.000000	84.789574	175.6927
850.000000	84.767052	176.0451
862.000000	84.750175	176.3994
875.000000	84.736572	176.7377
885.000000	84.725540	177.0799
900.000000	84.715279	177.5096
912.000000	84.714447	177.8870
925.000000	84.716736	178.2709
938.000000	84.722740	178.6119
950.000000	84.729736	178.9502
962.000000	84.744194	179.2812
975.000000	84.751183	179.6570
988.000000	84.789169	-179.9901
1000.000000	84.874802	-179.5961
1015.000000	84.819992	-179.4576
1030.000000	84.831749	-179.2134
1044.000000	84.854927	-178.9627
1060.000000	84.887939	-178.7371
1075.000000	84.917694	-178.5730
1090.000000	84.958130	-178.4538
1106.000000	85.003296	-178.3931
1120.000000	85.040535	-178.3568
1138.000000	85.085205	-178.3088
1150.000000	85.117691	-178.3661
1172.000000	85.167358	-178.3962
1180.000000	85.184647	-178.4613
1206.000000	85.230736	-178.6668
1220.000000	85.254700	-178.7573
1241.000000	85.275948	-178.9557
1250.000000	85.289078	-179.0313
1265.000000	85.298851	-179.1635
1280.000000	85.299294	-179.2809
1315.000000	85.295967	-179.5311
1320.000000	85.294266	-179.5892
1340.000000	85.277466	-179.6830
1360.000000	85.254425	-179.7706
1380.000000	85.225304	-179.7691
1400.000000	85.198311	-179.7634
1430.000000	85.142471	-179.6066
1450.000000	85.099525	-179.4450
1475.000000	85.049515	-179.2317
1500.000000	84.988426	-178.8557
1525.000000	84.930946	-178.3910
1550.000000	84.875687	-177.8138
1575.000000	84.832169	-177.1725
1600.000000	84.793633	-176.4025
1625.000000	84.755066	-175.5762
1650.000000	84.729889	-174.6056
1675.000000	84.715973	-173.5774
1700.000000	84.705978	-172.4563
1725.000000	84.721573	-171.2294
1750.000000	84.747910	-169.9861
1775.000000	84.785133	-168.5950
1800.000000	84.860367	-167.1357
1825.000000	84.950531	-165.6683
1850.000000	85.067947	-164.1378
1875.000000	85.220566	-162.5606
1900.000000	85.406151	-161.0064
1925.000000	85.630135	-159.5294
1950.000000	85.895500	-158.1011
1975.000000	86.183281	-156.9669
2000.000000	86.471497	-156.2583
2030.000000	87.002670	-155.2063
2060.000000	87.512749	-155.0999
2090.000000	88.008499	-155.6963
2120.000000	88.479530	-157.1476
2140.000000	88.747421	-158.5166
2180.000000	89.128548	-161.8959
2200.000000	89.230759	-163.7418
2240.000000	89.254440	-167.3777
2270.000000	89.127983	-169.8238
2300.000000	88.936172	-171.8156
2330.000000	88.727753	-173.2813
2360.000000	88.498100	-174.1662
2400.000000	88.228378	-174.4287
2430.000000	88.071144	-173.9698
2470.000000	87.886223	-172.8897
2500.000000	87.794571	-171.9004
2540.000000	87.720490	-170.3656
2580.000000	87.694794	-168.8173
2620.000000	87.725983	-167.1986
2650.000000	87.782333	-165.9411
2690.000000	87.905914	-164.4004
2720.000000	88.024643	-163.3089
2760.000000	88.204414	-161.8590
2800.000000	88.417854	-160.5438
2850.000000	88.725098	-159.1313
2900.000000	89.081429	-158.0343
2950.000000	89.484131	-157.2074
3000.000000	89.912056	-156.4671
3040.000000	90.280800	-156.7743
3070.000000	90.557251	-157.0614
3110.000000	90.938408	-157.7000
3150.000000	91.311295	-158.6801
3200.000000	91.755333	-160.4713
3250.000000	92.141815	-162.8785
3300.000000	92.456490	-165.8156
3350.000000	92.662567	-169.1122
3400.000000	92.745796	-172.5724
3450.000000	92.719147	-175.9337
3500.000000	92.600250	-178.9557
3550.000000	92.404984	178.3878
3600.000000	92.146187	176.2987
3650.000000	91.858604	174.6660
3700.000000	91.544380	173.5686
3750.000000	91.230583	173.0000
3820.000000	90.801903	173.0422
3870.000000	90.536514	173.7313
3950.000000	90.194839	175.3554
4000.000000	90.037598	176.6119
4060.000000	89.986107	178.8016
4120.000000	90.019073	-179.2441
4180.000000	90.179840	-177.2962
4250.000000	90.527924	-175.5476
4310.000000	90.941147	-175.0612
4370.000000	91.390633	-175.8449
4440.000000	91.848846	-178.3993
4500.000000	92.073402	178.2578
4550.000000	92.084602	175.1659
4620.000000	91.849808	171.1113
4680.000000	91.470291	168.5349
4750.000000	90.955299	166.8119
4820.000000	90.421219	166.3185
4870.000000	90.077866	166.5255
4940.000000	89.662125	167.5437
5000.000000	89.381035	168.6719
5080.000000	89.109909	170.9597
5150.000000	88.953400	173.0900
5220.000000	88.883324	175.1912
5300.000000	88.891815	177.6632
5380.000000	89.009132	179.9621
5450.000000	89.189186	-178.0809
5520.000000	89.422470	-176.4540
5600.000000	89.798569	-175.2701
5700.000000	90.401863	-175.1644
5800.000000	91.048042	-177.4380
5900.000000	91.541595	177.5170
6000.000000	91.593643	170.3213
6080.000000	91.205856	164.2610
6150.000000	90.555443	160.0071
6220.000000	89.730934	157.3174
6300.000000	88.702347	156.2636
6400.000000	87.476448	157.9270
6500.000000	86.445152	162.1597
6600.000000	85.718155	168.0916
6700.000000	85.328148	175.2023
6800.000000	85.329155	-177.4547
6900.000000	85.754120	-170.9175
7000.000000	86.552818	-166.5925
7100.000000	87.420258	-165.8954
7200.000000	87.879913	-168.0094
7300.000000	87.748077	-168.6779
7400.000000	87.748962	-164.9586
7500.000000	88.366249	-161.7127
7620.000000	89.179771	-160.4620
7750.000000	90.213654	-160.3113
7880.000000	91.421265	-163.5040
8000.000000	92.372856	-170.9331
8120.000000	92.684540	178.5873
8250.000000	92.092491	167.7967
8380.000000	90.955048	160.9177
8500.000000	89.812912	158.0236
8620.000000	88.773041	157.6187
8750.000000	87.800903	158.8705
8850.000000	87.177040	160.6381
9000.000000	86.460609	163.9507
9120.000000	86.080307	166.8043
9250.000000	85.827240	169.7783
9380.000000	85.726776	172.4708
9500.000000	85.754692	174.2370
9620.000000	85.773621	175.1057
9750.000000	85.732292	175.8838
9880.000000	85.718513	177.1362
10000.000000	85.803665	178.4376
10150.000000	86.085083	179.8637
10300.000000	86.549461	-179.5790
10440.000000	87.163574	179.6508
10600.000000	88.055496	176.1606
10750.000000	88.864075	168.8749
10900.000000	89.206085	157.6249
11060.000000	88.642921	144.1166
11200.000000	87.456451	134.6014
11380.000000	85.553879	127.5457
11500.000000	84.297531	125.5322
11720.000000	82.266251	125.5674
11800.000000	81.628395	126.5412
12060.000000	79.974182	131.1461
12200.000000	79.346031	134.4786
12410.000000	78.784309	139.4860
12500.000000	78.689667	142.0869
12650.000000	78.621483	145.4000
12800.000000	78.775101	148.4909
13150.000000	79.626930	152.0449
13200.000000	79.767075	152.2600
13400.000000	80.495773	151.8764
13600.000000	81.387459	150.1876
13800.000000	82.549477	146.0315
14000.000000	83.904655	137.7181
14300.000000	85.249710	113.9364
14500.000000	84.706894	94.6247
14750.000000	82.825729	77.4283
15000.000000	81.151924	67.5887
15250.000000	80.277435	59.7856
15500.000000	80.336548	46.7792
15750.000000	80.370750	17.6790
16000.000000	76.253822	-21.1813
16250.000000	69.556351	-38.9770
16500.000000	62.875038	-39.6757
16750.000000	56.228313	-24.2513
17000.000000	51.836006	14.6016
17250.000000	53.100945	54.6929
17500.000000	55.575954	71.7014
17750.000000	58.695576	80.2861
18000.000000	62.462044	71.3826
18250.000000	65.416656	48.7372
18500.000000	67.639915	21.5481
18750.000000	68.818520	-9.6036
19000.000000	68.820503	-39.0070
19250.000000	68.655228	-70.3767
19500.000000	68.299835	-102.5160
19750.000000	67.585503	-142.3593
