* Measurement data measured by REW V5.20 Beta 60
* Source: Headset (USB-C to 3.5mm Headphone Jack Adapter), MICROPHONE (Master Volume), R, volume: 0.258
* Format: 256k Log Swept Sine, 1 sweep at -12.0 dBFS with no timing reference
* Dated: Mar 12, 2021 6:29:19 PM
* REW Settings:
*  C-weighting compensation: Off
*  Target level: 75.0 dB
* Note: ; 
* Measurement: KL-REF V (Bass 50) R
* Smoothing: None
* Frequency Step: 1/48 octave
* Start Frequency: 20.000 Hz
*
* Freq(Hz)	SPL(dB)	Phase(degrees)
20.000000	85.916428	-137.5697
20.299999	86.043945	-138.0978
20.600000	86.160263	-138.7480
20.900000	86.259529	-139.5025
21.200001	86.340340	-140.3628
21.400000	86.378380	-140.9698
21.799999	86.412735	-142.1780
22.000000	86.410828	-142.7335
22.400000	86.381866	-143.6616
22.700001	86.350822	-144.1168
23.000000	86.332146	-144.3775
23.299999	86.341049	-144.5435
23.600000	86.377632	-144.7088
24.000000	86.459099	-145.0719
24.299999	86.531586	-145.5101
24.700001	86.625977	-146.2858
25.000000	86.688812	-146.9674
25.400000	86.761887	-147.9814
25.799999	86.813766	-149.0701
26.200001	86.835289	-150.1801
26.500000	86.829048	-150.9365
26.900000	86.798820	-151.6875
27.200001	86.780380	-152.0130
27.600000	86.792450	-152.2035
28.000000	86.857956	-152.3796
28.500000	86.978271	-152.9783
29.000000	87.056778	-153.9214
29.500000	87.068245	-154.7173
30.000000	87.071648	-155.0025
30.400000	87.120865	-155.0530
30.700001	87.185265	-155.1761
31.100000	87.276100	-155.6125
31.500000	87.335854	-156.2931
32.000000	87.343033	-157.0999
32.500000	87.318855	-157.5399
33.000000	87.324364	-157.7031
33.500000	87.367661	-157.9646
34.000000	87.406914	-158.4810
34.500000	87.416748	-159.1083
35.000000	87.399582	-159.6384
35.500000	87.380257	-160.0209
36.000000	87.374687	-160.3086
36.500000	87.390411	-160.6057
37.000000	87.426468	-161.0155
37.500000	87.467590	-161.6357
38.200001	87.479599	-162.7146
38.700001	87.451355	-163.3526
39.500000	87.429413	-163.9001
40.000000	87.451813	-164.1893
40.599998	87.487785	-164.6629
41.200001	87.519356	-165.1442
41.799999	87.557838	-165.6214
42.500000	87.593864	-166.2901
43.099998	87.596504	-166.8451
43.700001	87.591324	-167.2603
44.400002	87.588959	-167.7156
45.000000	87.572609	-168.1035
45.500000	87.555222	-168.3222
46.200001	87.553139	-168.5670
46.799999	87.556374	-168.9396
47.500000	87.531502	-169.3661
48.200001	87.522202	-169.5937
48.700001	87.539337	-169.8817
49.400002	87.533081	-170.5269
50.000000	87.487579	-170.8600
50.799999	87.490204	-171.0017
51.500000	87.530579	-171.5058
52.200001	87.505341	-172.1446
53.000000	87.469543	-172.3822
53.799999	87.496231	-172.7574
54.500000	87.474915	-173.3467
55.200001	87.423637	-173.6059
56.000000	87.419960	-173.7204
57.000000	87.423225	-174.2841
58.000000	87.384689	-174.7367
59.000000	87.363503	-175.0583
60.000000	87.354660	-175.4237
60.799999	87.335022	-175.7645
61.500000	87.313286	-175.9989
62.200001	87.297890	-176.2099
63.000000	87.279587	-176.4809
64.000000	87.254868	-176.8208
65.000000	87.225540	-177.2160
66.000000	87.186829	-177.5412
67.000000	87.157898	-177.8956
68.000000	87.117035	-178.1744
69.000000	87.108047	-178.4134
70.000000	87.083366	-178.8016
71.000000	87.051430	-179.0297
72.000000	87.028824	-179.2451
73.000000	87.013947	-179.4244
74.000000	87.001709	-179.7704
75.000000	86.950874	179.9458
76.199997	86.919739	179.8645
77.500000	86.903526	179.4940
78.800003	86.852402	179.1814
80.000000	86.820480	178.9776
81.199997	86.786949	178.7976
82.500000	86.759895	178.5427
83.800003	86.717110	178.3941
85.000000	86.697235	178.1955
86.199997	86.657402	177.9882
87.500000	86.614075	177.7407
88.500000	86.574280	177.6604
90.000000	86.537430	177.4235
91.199997	86.493805	177.3422
92.500000	86.463806	177.1185
93.800003	86.414017	177.0647
95.000000	86.391602	176.8838
96.199997	86.347061	176.7904
97.500000	86.321754	176.6021
98.800003	86.271851	176.5051
100.000000	86.249260	176.4176
101.500000	86.214249	176.3059
103.000000	86.165527	176.0312
104.400002	86.092232	176.1165
106.000000	86.065506	176.1679
107.500000	86.036087	176.0572
109.000000	85.995956	175.8539
110.599998	85.937134	175.7394
112.000000	85.909454	175.7288
113.800003	85.900192	175.6841
115.000000	85.891716	175.4998
117.199997	85.788254	175.5132
118.000000	85.760887	175.6006
120.599998	85.776436	175.8134
122.000000	85.652611	175.5109
124.099998	85.570045	175.3020
125.000000	85.562012	175.5662
126.500000	85.551941	175.3705
128.000000	85.532074	175.5395
131.500000	85.421516	175.6024
132.000000	85.400124	175.6372
134.000000	85.343239	175.6442
136.000000	85.298561	175.4695
138.000000	85.259201	175.6506
140.000000	85.230453	175.6544
143.000000	85.153671	175.7248
145.000000	85.099915	175.7426
147.500000	85.039619	175.9064
150.000000	84.992188	175.9446
152.500000	84.931404	176.0322
155.000000	84.885399	176.2242
157.500000	84.880249	176.3867
160.000000	84.828239	176.5443
162.500000	84.779922	176.7365
165.000000	84.707840	176.9302
167.500000	84.669456	176.9521
170.000000	84.668983	176.9576
172.500000	84.602974	177.2589
175.000000	84.551453	177.5905
177.500000	84.465317	177.8482
180.000000	84.420700	177.7299
182.500000	84.387871	177.9634
185.000000	84.343376	178.2451
187.500000	84.278282	178.4184
190.000000	84.232269	178.5859
192.500000	84.191376	178.8079
195.000000	84.142288	179.0582
197.500000	84.098076	179.1497
200.000000	84.054962	179.5822
203.000000	83.998505	179.6938
206.000000	83.950211	179.9950
209.000000	83.912086	-179.7886
212.000000	83.845596	-179.4408
214.000000	83.829475	-179.2475
218.000000	83.775475	-178.9151
220.000000	83.754990	-178.7081
224.000000	83.712143	-178.3056
227.000000	83.683655	-178.1000
230.000000	83.647835	-177.8139
233.000000	83.615379	-177.4863
236.000000	83.590164	-177.2632
240.000000	83.552460	-176.7818
243.000000	83.509911	-176.5430
247.000000	83.476204	-176.1356
250.000000	83.438248	-175.7610
254.000000	83.380150	-175.3296
258.000000	83.338058	-174.9079
262.000000	83.288589	-174.4293
265.000000	83.269547	-174.1491
269.000000	83.213112	-173.6381
272.000000	83.183578	-173.2174
276.000000	83.166924	-172.9254
280.000000	83.126335	-172.3560
285.000000	83.091011	-171.8301
290.000000	83.062691	-171.2571
295.000000	83.002304	-170.6001
300.000000	82.999023	-170.0161
304.000000	82.967331	-169.5162
307.000000	82.947418	-169.1064
311.000000	82.933418	-168.7135
315.000000	82.916481	-168.1851
320.000000	82.887955	-167.5755
325.000000	82.878090	-167.0715
330.000000	82.869743	-166.3059
335.000000	82.857590	-165.8090
340.000000	82.834808	-165.2223
345.000000	82.840919	-164.8196
350.000000	82.859573	-164.2694
355.000000	82.858101	-163.6656
360.000000	82.839714	-163.1866
365.000000	82.847687	-162.7026
370.000000	82.843887	-162.3179
375.000000	82.845032	-161.9351
382.000000	82.847610	-161.3407
387.000000	82.856850	-160.9868
395.000000	82.849579	-160.3203
400.000000	82.847466	-159.9974
406.000000	82.844063	-159.4800
412.000000	82.843185	-159.0101
418.000000	82.831207	-158.5791
425.000000	82.809006	-158.2186
431.000000	82.797203	-157.7572
437.000000	82.792915	-157.2856
444.000000	82.781013	-156.7034
450.000000	82.781395	-156.3304
455.000000	82.789536	-155.9984
462.000000	82.752838	-155.5486
468.000000	82.740417	-155.1304
475.000000	82.720963	-154.7155
482.000000	82.704697	-154.2239
487.000000	82.689224	-153.8540
494.000000	82.679680	-153.4518
500.000000	82.672279	-152.8199
508.000000	82.649254	-152.3446
515.000000	82.634346	-151.7397
522.000000	82.613594	-151.1951
530.000000	82.599213	-150.6116
538.000000	82.571411	-149.9731
545.000000	82.562561	-149.3583
552.000000	82.544746	-148.7832
560.000000	82.526161	-148.1411
570.000000	82.508186	-147.3261
580.000000	82.488953	-146.4529
590.000000	82.464645	-145.5953
600.000000	82.441292	-144.8752
608.000000	82.436302	-144.0643
615.000000	82.436592	-143.4502
622.000000	82.427567	-142.9081
630.000000	82.421974	-142.1403
640.000000	82.408432	-141.3926
650.000000	82.410789	-140.5191
660.000000	82.397881	-139.6106
670.000000	82.402466	-138.7287
680.000000	82.396614	-137.8613
690.000000	82.402985	-136.9635
700.000000	82.391716	-136.1473
710.000000	82.393150	-135.1975
720.000000	82.394966	-134.2693
730.000000	82.399841	-133.3517
740.000000	82.403580	-132.4563
750.000000	82.414642	-131.5759
762.000000	82.422409	-130.4388
775.000000	82.432961	-129.2800
788.000000	82.438896	-128.0701
800.000000	82.443527	-127.0943
812.000000	82.469894	-125.8432
825.000000	82.500183	-124.6580
838.000000	82.532562	-123.4280
850.000000	82.559731	-122.2784
862.000000	82.592499	-121.1418
875.000000	82.636177	-119.9449
885.000000	82.664352	-118.9945
900.000000	82.737236	-117.6861
912.000000	82.787216	-116.5177
925.000000	82.845238	-115.3631
938.000000	82.922409	-114.1691
950.000000	82.985855	-113.1451
962.000000	83.059036	-112.1219
975.000000	83.142181	-111.0063
988.000000	83.250862	-109.8877
1000.000000	83.407814	-108.8743
1015.000000	83.416039	-107.8210
1030.000000	83.507622	-106.7387
1044.000000	83.611519	-105.7434
1060.000000	83.743965	-104.6484
1075.000000	83.863739	-103.7074
1090.000000	83.995415	-102.8556
1106.000000	84.145096	-101.9873
1120.000000	84.269623	-101.3707
1138.000000	84.412308	-100.5357
1150.000000	84.510468	-100.0339
1172.000000	84.686539	-99.1677
1180.000000	84.746513	-98.8797
1206.000000	84.939163	-97.9926
1220.000000	85.048950	-97.4984
1241.000000	85.203026	-96.8898
1250.000000	85.267426	-96.6410
1265.000000	85.375061	-96.2454
1280.000000	85.478569	-95.8849
1315.000000	85.700081	-95.0409
1320.000000	85.725967	-94.9327
1340.000000	85.843613	-94.5240
1360.000000	85.945885	-94.0621
1380.000000	86.050529	-93.6260
1400.000000	86.146530	-93.1311
1430.000000	86.280609	-92.5958
1450.000000	86.370590	-92.1338
1475.000000	86.476357	-91.5931
1500.000000	86.563072	-91.0614
1525.000000	86.665588	-90.4761
1550.000000	86.761246	-89.9694
1575.000000	86.856277	-89.4407
1600.000000	86.946762	-88.9937
1625.000000	87.037865	-88.3851
1650.000000	87.122528	-87.8252
1675.000000	87.207634	-87.3291
1700.000000	87.291924	-86.7849
1725.000000	87.373116	-86.3083
1750.000000	87.453476	-85.8340
1775.000000	87.530228	-85.3518
1800.000000	87.602264	-84.9611
1825.000000	87.669113	-84.4210
1850.000000	87.733948	-84.0411
1875.000000	87.802292	-83.6008
1900.000000	87.870949	-83.2560
1925.000000	87.924408	-82.8199
1950.000000	87.971016	-82.4589
1975.000000	88.001434	-82.1637
2000.000000	87.980896	-82.1157
2030.000000	88.096085	-81.3603
2060.000000	88.147537	-80.9009
2090.000000	88.172592	-80.5129
2120.000000	88.188972	-80.1215
2140.000000	88.203758	-79.8429
2180.000000	88.204796	-79.3036
2200.000000	88.215904	-78.9830
2240.000000	88.209938	-78.5556
2270.000000	88.190071	-78.5012
2300.000000	88.157211	-78.5471
2330.000000	88.127777	-78.5693
2360.000000	88.089569	-78.5764
2400.000000	88.027969	-78.2687
2430.000000	87.991760	-77.8171
2470.000000	87.914078	-76.9301
2500.000000	87.854172	-76.2706
2540.000000	87.775208	-75.2742
2580.000000	87.685921	-74.2109
2620.000000	87.601112	-73.1026
2650.000000	87.539711	-72.2367
2690.000000	87.455589	-70.9826
2720.000000	87.392723	-69.9821
2760.000000	87.300018	-68.6187
2800.000000	87.220352	-67.1905
2850.000000	87.113991	-65.3495
2900.000000	87.020027	-63.3646
2950.000000	86.947708	-61.3591
3000.000000	86.893341	-58.9495
3040.000000	86.841621	-57.5335
3070.000000	86.805885	-56.2548
3110.000000	86.781479	-54.5365
3150.000000	86.761818	-52.8205
3200.000000	86.753006	-50.5717
3250.000000	86.750954	-48.3275
3300.000000	86.768127	-46.0699
3350.000000	86.799507	-43.8951
3400.000000	86.840530	-41.6262
3450.000000	86.919724	-39.4350
3500.000000	87.026535	-37.2931
3550.000000	87.149040	-35.0939
3600.000000	87.277283	-33.0175
3650.000000	87.421089	-30.9578
3700.000000	87.582123	-28.9780
3750.000000	87.753082	-26.9603
3820.000000	88.016487	-24.3776
3870.000000	88.209373	-22.5747
3950.000000	88.534546	-19.9104
4000.000000	88.730873	-18.4573
4060.000000	89.044617	-16.4522
4120.000000	89.356316	-14.7773
4180.000000	89.685822	-13.3232
4250.000000	90.119041	-11.7837
4310.000000	90.508095	-10.9075
4370.000000	90.910713	-10.3287
4440.000000	91.390480	-10.1007
4500.000000	91.800529	-10.4066
4550.000000	92.135788	-10.9961
4620.000000	92.567574	-12.3915
4680.000000	92.884018	-14.1289
4750.000000	93.161552	-16.7238
4820.000000	93.311356	-19.7201
4870.000000	93.326172	-21.9536
4940.000000	93.217766	-25.0463
5000.000000	93.005966	-27.4649
5080.000000	92.610542	-29.5918
5150.000000	92.179901	-30.6985
5220.000000	91.720276	-31.0408
5300.000000	91.190811	-30.3878
5380.000000	90.700005	-28.8503
5450.000000	90.313385	-26.8395
5520.000000	89.960289	-24.2920
5600.000000	89.658485	-20.8636
5700.000000	89.451866	-16.1844
5800.000000	89.441460	-11.4833
5900.000000	89.600235	-7.0388
6000.000000	89.919571	-3.0836
6080.000000	90.292007	-0.4661
6150.000000	90.680336	1.3313
6220.000000	91.108406	2.6216
6300.000000	91.642075	3.3580
6400.000000	92.320663	3.1242
6500.000000	92.957886	1.6176
6600.000000	93.499023	-1.0558
6700.000000	93.920906	-4.6522
6800.000000	94.183502	-8.7349
6900.000000	94.329254	-13.0850
7000.000000	94.379623	-17.6363
7100.000000	94.314270	-22.2533
7200.000000	94.122391	-27.0211
7300.000000	93.782982	-32.0130
7400.000000	93.236694	-36.9601
7500.000000	92.448532	-41.1909
7620.000000	91.265182	-44.3182
7750.000000	89.879791	-44.7135
7880.000000	88.637268	-42.3787
8000.000000	87.777802	-38.9121
8120.000000	87.189674	-35.4182
8250.000000	86.722832	-32.3843
8380.000000	86.324768	-30.2819
8500.000000	85.900894	-29.0048
8620.000000	85.440315	-27.8921
8750.000000	84.847839	-26.5701
8850.000000	84.351097	-25.2544
9000.000000	83.607613	-22.8220
9120.000000	83.022720	-20.6112
9250.000000	82.435074	-17.7941
9380.000000	81.909500	-14.6695
9500.000000	81.473808	-11.7123
9620.000000	81.111526	-8.8900
9750.000000	80.739700	-5.6341
9880.000000	80.470329	-2.5964
10000.000000	80.256798	-0.0759
10150.000000	80.065712	2.7899
10300.000000	79.946503	5.0287
10440.000000	79.804672	6.7814
10600.000000	79.652229	7.7703
10750.000000	79.539192	8.0996
10900.000000	79.316803	7.8803
11060.000000	79.033585	7.0824
11200.000000	78.707886	6.0712
11380.000000	78.168594	4.4988
11500.000000	77.674011	2.9206
11720.000000	76.467644	1.8721
11800.000000	75.966736	1.8197
12060.000000	74.532303	3.9571
12200.000000	73.752411	5.4555
12410.000000	72.536613	7.4359
12500.000000	71.962044	9.9202
12650.000000	71.076981	16.0311
12800.000000	70.665794	19.8500
13150.000000	70.216232	32.0805
13200.000000	70.144432	33.4816
13400.000000	70.125374	39.1491
13600.000000	70.137024	43.7451
13800.000000	70.401764	47.4866
14000.000000	70.594635	51.1044
14300.000000	71.192947	54.1540
14500.000000	71.624161	55.0393
14750.000000	72.212273	55.4589
15000.000000	73.012344	53.4827
15250.000000	73.945244	49.8817
15500.000000	74.995590	42.8577
15750.000000	76.075180	29.3986
16000.000000	76.305878	10.3084
16250.000000	75.458549	-9.4886
16500.000000	73.577812	-28.5998
16750.000000	70.875832	-41.2994
17000.000000	68.292236	-45.8163
17250.000000	66.777863	-46.8425
17500.000000	65.623116	-49.8196
17750.000000	64.762398	-57.7547
18000.000000	63.719963	-72.4073
18250.000000	61.938049	-86.8893
18500.000000	59.326355	-99.2853
18750.000000	56.282543	-89.3877
19000.000000	57.507584	-72.9091
19250.000000	60.912621	-75.1803
19500.000000	63.658440	-93.9476
19750.000000	65.898422	-119.3838
