* Measurement data measured by REW V5.20 Beta 60
* Source: Headset (USB-C to 3.5mm Headphone Jack Adapter), MICROPHONE (Master Volume), R, volume: 0.000
* Format: 256k Log Swept Sine, 1 sweep at -12.0 dBFS with no timing reference
* Dated: Nov 21, 2020 4:34:59 PM
* REW Settings:
*  C-weighting compensation: Off
*  Target level: 75.0 dB
* Note: ; 
* Measurement: Moondrop SSP R
* Smoothing: None
* Frequency Step: 1/48 octave
* Start Frequency: 20.000 Hz
*
* Freq(Hz)	SPL(dB)	Phase(degrees)
20.000000	86.359802	-143.9160
20.299999	86.429810	-144.4862
20.600000	86.491028	-145.1120
20.900000	86.535828	-145.7565
21.200001	86.564751	-146.3665
21.400000	86.576286	-146.7016
21.799999	86.596237	-147.1503
22.000000	86.615005	-147.2759
22.400000	86.691307	-147.4551
22.700001	86.777878	-147.6447
23.000000	86.874741	-148.0030
23.299999	86.960541	-148.5390
23.600000	87.016327	-149.1437
24.000000	87.035385	-149.8066
24.299999	87.028450	-150.0124
24.700001	87.039818	-149.8274
25.000000	87.096695	-149.5078
25.400000	87.248512	-149.2468
25.799999	87.434296	-149.5251
26.200001	87.579948	-150.3587
26.500000	87.635216	-151.1391
26.900000	87.638321	-152.0503
27.200001	87.614746	-152.5050
27.600000	87.590767	-152.8383
28.000000	87.594055	-153.1138
28.500000	87.608498	-153.7194
29.000000	87.576118	-154.4722
29.500000	87.504074	-154.9780
30.000000	87.451874	-155.1024
30.400000	87.453522	-155.1265
30.700001	87.474869	-155.1848
31.100000	87.520012	-155.3335
31.500000	87.585258	-155.5395
32.000000	87.703171	-155.9362
32.500000	87.841957	-156.7249
33.000000	87.931068	-157.8371
33.500000	87.940331	-158.7547
34.000000	87.943779	-159.0037
34.500000	88.051842	-158.9859
35.000000	88.237030	-159.5789
35.500000	88.345474	-161.0356
36.000000	88.269485	-162.5073
36.500000	88.069855	-162.9567
37.000000	87.932259	-162.1994
37.500000	87.963371	-161.2256
38.200001	88.115524	-161.1084
38.700001	88.147354	-161.6278
39.500000	88.112152	-162.0254
40.000000	88.122635	-162.1218
40.599998	88.155815	-162.5328
41.200001	88.161850	-163.1617
41.799999	88.140038	-163.7274
42.500000	88.107971	-164.0992
43.099998	88.121155	-164.1608
43.700001	88.197418	-164.3605
44.400002	88.277435	-165.1356
45.000000	88.271851	-165.7344
45.500000	88.279419	-165.8482
46.200001	88.381210	-166.2236
46.799999	88.410210	-167.3346
47.500000	88.252533	-167.9687
48.200001	88.226212	-167.0394
48.700001	88.386063	-167.0244
49.400002	88.468544	-168.9901
50.000000	88.204208	-170.0955
50.799999	87.968857	-168.2206
51.500000	88.211304	-167.2708
52.200001	88.322433	-168.5436
53.000000	88.177223	-168.8716
53.799999	88.246620	-168.3750
54.500000	88.289200	-169.2141
55.200001	88.160652	-169.4549
56.000000	88.184975	-168.4746
57.000000	88.421623	-169.1425
58.000000	88.428658	-170.4304
59.000000	88.450859	-170.9777
60.000000	88.486862	-171.6994
60.799999	88.497177	-172.0977
61.500000	88.523979	-172.4794
62.200001	88.511986	-173.0807
63.000000	88.403046	-173.3999
64.000000	88.335052	-172.7347
65.000000	88.393341	-172.7896
66.000000	88.340950	-173.1211
67.000000	88.361328	-173.1861
68.000000	88.348007	-174.0404
69.000000	88.268097	-174.1812
70.000000	88.317207	-174.2212
71.000000	88.337990	-174.8219
72.000000	88.308136	-175.2010
73.000000	88.259109	-175.2827
74.000000	88.272888	-175.0352
75.000000	88.319481	-175.4656
76.199997	88.260284	-175.7925
77.500000	88.293022	-176.0732
78.800003	88.288254	-176.5706
80.000000	88.248978	-177.2355
81.199997	88.272690	-176.8758
82.500000	88.241325	-178.2483
83.800003	88.265144	-176.5327
85.000000	88.380905	-178.2559
86.199997	88.322037	-177.0302
87.500000	88.356651	-178.7325
88.500000	88.189835	-177.1811
90.000000	88.321869	-178.6457
91.199997	88.081619	-177.7508
92.500000	88.136627	-178.7049
93.800003	87.946587	-178.4698
95.000000	88.041100	-178.9431
96.199997	87.973663	-179.4330
97.500000	88.020782	179.9880
98.800003	87.927628	179.8273
100.000000	87.955643	179.8347
101.500000	88.000145	179.7023
103.000000	87.894905	179.0509
104.400002	87.926537	179.4521
106.000000	87.902344	179.1600
107.500000	87.849869	178.8986
109.000000	87.869797	179.2731
110.599998	87.858658	178.2191
112.000000	87.798531	178.3188
113.800003	87.793617	177.6296
115.000000	87.764328	177.8785
117.199997	87.774139	177.3178
118.000000	87.685707	177.3731
120.599998	87.702858	177.2480
122.000000	87.635498	177.4634
124.099998	87.637421	176.6930
125.000000	87.593582	176.6061
126.500000	87.573723	176.8788
128.000000	87.577782	176.5681
131.500000	87.456642	176.4980
132.000000	87.485443	176.4713
134.000000	87.461861	175.7556
136.000000	87.362846	176.1466
138.000000	87.368805	175.6400
140.000000	87.310349	176.2575
143.000000	87.211349	175.2119
145.000000	87.150345	174.8546
147.500000	87.159058	174.8629
150.000000	87.104340	174.9977
152.500000	87.101196	174.7369
155.000000	87.020943	175.0342
157.500000	87.021500	175.1038
160.000000	86.934944	174.5231
162.500000	87.001518	174.5593
165.000000	86.768387	175.2632
167.500000	86.797279	174.2224
170.000000	86.746185	175.8523
172.500000	85.626389	178.6987
175.000000	88.490021	-174.2838
177.500000	87.179688	171.4373
180.000000	87.283653	174.5438
182.500000	86.403740	175.6783
185.000000	86.404037	175.0207
187.500000	86.387581	175.7881
190.000000	86.404068	173.3317
192.500000	86.293015	174.9781
195.000000	86.126694	174.5151
197.500000	86.116890	177.5385
200.000000	86.130028	175.2669
203.000000	86.010277	174.9368
206.000000	85.936264	175.7029
209.000000	85.835579	175.3791
212.000000	86.274475	174.6425
214.000000	86.144463	176.1342
218.000000	84.429726	171.9969
220.000000	84.611687	175.3739
224.000000	85.433914	171.2076
227.000000	85.761375	176.4964
230.000000	85.690178	174.7857
233.000000	85.649055	176.4946
236.000000	85.410141	177.5649
240.000000	85.596565	176.0104
243.000000	85.238876	174.7935
247.000000	85.387894	175.6234
250.000000	85.365578	174.1986
254.000000	85.406647	175.7130
258.000000	85.326378	175.7433
262.000000	84.998657	178.4751
265.000000	84.985703	176.3695
269.000000	85.125702	175.7242
272.000000	84.911667	176.9178
276.000000	84.656487	176.8067
280.000000	84.843964	176.9192
285.000000	84.779152	177.3052
290.000000	84.636246	177.8933
295.000000	84.629837	177.3647
300.000000	84.526810	177.7508
304.000000	84.392265	178.1863
307.000000	84.488922	177.8801
311.000000	84.273186	178.5480
315.000000	84.188736	179.1275
320.000000	84.213341	178.8403
325.000000	84.137497	-179.9184
330.000000	84.122620	-179.8611
335.000000	84.033882	-179.0892
340.000000	83.996399	-178.5417
345.000000	84.046509	-178.4153
350.000000	83.561958	179.0477
355.000000	83.666847	-178.5436
360.000000	83.651985	-178.1817
365.000000	83.652893	-177.6931
370.000000	83.546173	-177.0748
375.000000	83.464073	-176.7927
382.000000	83.395088	-175.9264
387.000000	83.322693	-175.6803
395.000000	83.240013	-175.0743
400.000000	83.138344	-174.7293
406.000000	83.092018	-174.9100
412.000000	83.003899	-173.5206
418.000000	82.983841	-173.7036
425.000000	82.885239	-171.4800
431.000000	82.884178	-173.4078
437.000000	83.086304	-167.8159
444.000000	81.572105	-171.4278
450.000000	81.182182	177.6892
455.000000	82.846260	-166.4916
462.000000	82.353867	-170.6802
468.000000	82.799538	-166.8536
475.000000	82.681519	-168.0385
482.000000	82.410202	-173.6982
487.000000	81.858810	-164.7924
494.000000	82.107948	-169.4355
500.000000	82.158112	-164.7424
508.000000	82.222099	-165.6992
515.000000	81.268524	-171.1550
522.000000	82.034248	-164.1216
530.000000	81.462234	-163.2693
538.000000	81.973053	-162.1276
545.000000	81.734337	-160.8824
552.000000	81.652908	-160.4202
560.000000	81.644096	-159.3748
570.000000	81.662483	-157.8426
580.000000	81.571053	-157.8598
590.000000	81.534286	-156.6000
600.000000	81.365578	-154.9617
608.000000	81.451424	-154.4036
615.000000	81.330681	-153.6220
622.000000	81.465866	-152.8217
630.000000	81.267609	-152.5427
640.000000	81.282509	-151.8547
650.000000	81.209763	-150.1542
660.000000	81.145645	-149.0787
670.000000	80.989418	-147.5993
680.000000	81.007172	-147.0390
690.000000	80.997993	-145.0073
700.000000	80.854851	-143.4348
710.000000	81.005882	-142.3946
720.000000	80.978722	-142.4194
730.000000	80.864044	-141.5204
740.000000	80.920250	-139.9007
750.000000	80.784134	-139.0638
762.000000	80.891930	-137.5399
775.000000	80.792053	-136.6136
788.000000	80.769386	-133.3307
800.000000	80.713684	-131.8906
812.000000	80.723022	-131.3099
825.000000	80.585350	-130.2780
838.000000	80.595535	-128.4055
850.000000	80.741264	-125.4049
862.000000	80.439049	-127.3029
875.000000	80.248596	-124.1985
885.000000	81.333809	-125.1264
900.000000	80.609116	-121.9481
912.000000	80.707451	-119.2198
925.000000	80.746490	-117.6302
938.000000	80.845985	-115.8041
950.000000	80.868958	-114.9832
962.000000	80.884155	-113.2391
975.000000	80.967567	-111.7385
988.000000	81.019600	-109.8645
1000.000000	81.166382	-108.6216
1015.000000	81.187958	-107.3534
1030.000000	81.280792	-105.2490
1044.000000	81.408699	-103.8973
1060.000000	81.476669	-102.3949
1075.000000	81.626968	-101.2833
1090.000000	81.642349	-99.6476
1106.000000	81.879456	-98.4083
1120.000000	81.982826	-97.1841
1138.000000	82.168587	-95.9072
1150.000000	82.270409	-94.9158
1172.000000	82.454384	-93.6128
1180.000000	82.577271	-92.8295
1206.000000	82.742905	-91.4499
1220.000000	82.889244	-90.7054
1241.000000	83.044159	-89.6501
1250.000000	83.102028	-89.1903
1265.000000	83.227020	-88.3009
1280.000000	83.329842	-87.5271
1315.000000	83.552383	-86.6668
1320.000000	83.114914	-88.8517
1340.000000	83.754433	-85.5047
1360.000000	83.842209	-83.9184
1380.000000	83.939346	-82.8842
1400.000000	84.047150	-82.3183
1430.000000	84.232445	-80.8052
1450.000000	84.314880	-79.6801
1475.000000	84.470947	-78.6109
1500.000000	84.573746	-77.4330
1525.000000	84.673065	-76.0782
1550.000000	84.825867	-75.0135
1575.000000	84.925156	-73.8019
1600.000000	85.079453	-72.2806
1625.000000	85.187927	-71.1903
1650.000000	85.354439	-69.8596
1675.000000	85.463982	-68.8141
1700.000000	85.579788	-67.5016
1725.000000	85.740463	-66.6464
1750.000000	85.846840	-65.2995
1775.000000	86.022522	-64.3918
1800.000000	86.108437	-62.9185
1825.000000	86.231186	-61.6748
1850.000000	86.366211	-60.4866
1875.000000	86.479599	-59.4355
1900.000000	86.654587	-58.2677
1925.000000	86.781387	-57.0795
1950.000000	86.966171	-56.0038
1975.000000	87.074135	-54.9127
2000.000000	87.163132	-54.0926
2030.000000	87.409119	-52.4800
2060.000000	87.601929	-51.0128
2090.000000	87.795952	-49.9115
2120.000000	87.975121	-48.7455
2140.000000	88.104889	-47.8366
2180.000000	88.360779	-46.2166
2200.000000	88.504288	-45.5423
2240.000000	88.774651	-44.2791
2270.000000	88.965904	-43.6175
2300.000000	89.165184	-43.1030
2330.000000	89.353439	-42.7508
2360.000000	89.566574	-42.3984
2400.000000	89.846855	-41.7676
2430.000000	90.049026	-41.1695
2470.000000	90.317429	-40.2056
2500.000000	90.524895	-39.6497
2540.000000	90.781357	-38.8841
2580.000000	91.048401	-38.2315
2620.000000	91.310532	-37.6700
2650.000000	91.499588	-37.3609
2690.000000	91.765152	-37.0360
2720.000000	91.956924	-36.7702
2760.000000	92.188690	-36.5445
2800.000000	92.415672	-36.4033
2850.000000	92.690613	-36.4299
2900.000000	92.945053	-36.5902
2950.000000	93.181107	-36.8137
3000.000000	93.394867	-36.6926
3040.000000	93.561478	-37.1723
3070.000000	93.682480	-37.4363
3110.000000	93.837753	-37.7549
3150.000000	94.010544	-38.0345
3200.000000	94.199516	-38.6944
3250.000000	94.401199	-39.7286
3300.000000	94.506157	-40.7693
3350.000000	94.598297	-41.9523
3400.000000	94.656898	-43.0423
3450.000000	94.708755	-44.1515
3500.000000	94.738159	-45.3797
3550.000000	94.721512	-46.5001
3600.000000	94.673424	-47.6212
3650.000000	94.594261	-48.6001
3700.000000	94.468857	-49.3043
3750.000000	94.356071	-49.9378
3820.000000	94.135887	-50.4188
3870.000000	93.975258	-50.5496
3950.000000	93.712257	-50.3918
4000.000000	93.533134	-50.2306
4060.000000	93.390076	-49.5977
4120.000000	93.271904	-48.9489
4180.000000	93.135300	-48.4778
4250.000000	92.990646	-47.7710
4310.000000	92.867249	-47.1168
4370.000000	92.724075	-46.4958
4440.000000	92.576050	-45.5671
4500.000000	92.488129	-44.8154
4550.000000	92.410973	-44.1711
4620.000000	92.292328	-43.0769
4680.000000	92.201889	-42.2772
4750.000000	92.098938	-41.2362
4820.000000	92.001518	-40.0480
4870.000000	91.935577	-39.3302
4940.000000	91.869614	-38.2791
5000.000000	91.806061	-37.5042
5080.000000	91.758820	-35.9749
5150.000000	91.714508	-34.9514
5220.000000	91.656128	-33.8224
5300.000000	91.597015	-32.6815
5380.000000	91.554924	-31.3823
5450.000000	91.521515	-30.3051
5520.000000	91.437424	-29.2341
5600.000000	91.363022	-27.8204
5700.000000	91.283585	-26.5332
5800.000000	91.219353	-25.1306
5900.000000	91.137978	-23.7533
6000.000000	91.085800	-22.4327
6080.000000	91.042542	-21.3269
6150.000000	91.005035	-20.3980
6220.000000	90.986069	-19.4842
6300.000000	90.981812	-18.5088
6400.000000	90.976051	-17.2575
6500.000000	90.967438	-15.9966
6600.000000	90.978539	-14.8267
6700.000000	90.996483	-13.7519
6800.000000	91.039726	-12.7836
6900.000000	91.093338	-11.9264
7000.000000	91.181732	-11.0388
7100.000000	91.283783	-10.3522
7200.000000	91.364319	-9.6169
7300.000000	91.497467	-9.2384
7400.000000	91.632278	-8.9080
7500.000000	91.732979	-8.8645
7620.000000	91.844200	-8.8456
7750.000000	91.930229	-8.9541
7880.000000	91.995880	-9.3170
8000.000000	92.094452	-9.7727
8120.000000	92.205223	-10.8312
8250.000000	92.317940	-12.3267
8380.000000	92.419319	-14.8109
8500.000000	92.433563	-18.1035
8620.000000	92.322037	-22.3869
8750.000000	91.898499	-27.7515
8850.000000	91.336395	-31.8330
9000.000000	90.163254	-36.6427
9120.000000	89.056450	-38.8991
9250.000000	87.818169	-39.5991
9380.000000	86.594711	-38.7811
9500.000000	85.569908	-37.0593
9620.000000	84.598724	-34.6901
9750.000000	83.637932	-31.6121
9880.000000	82.772812	-28.2026
10000.000000	82.038422	-24.8241
10150.000000	81.222801	-20.2973
10300.000000	80.502060	-15.6047
10440.000000	79.835258	-11.0905
10600.000000	79.200928	-6.0683
10750.000000	78.674965	-1.0187
10900.000000	78.200417	3.5947
11060.000000	77.738998	8.9994
11200.000000	77.380577	13.3175
11380.000000	77.011604	19.2595
11500.000000	76.810722	23.4221
11720.000000	76.510132	30.2114
11800.000000	76.444229	32.6678
12060.000000	76.293648	40.1184
12200.000000	76.219101	44.6652
12410.000000	76.402534	50.2888
12500.000000	76.482422	52.4639
12650.000000	76.626808	56.6910
12800.000000	76.883865	60.0277
13150.000000	77.548309	67.6171
13200.000000	77.657471	68.7062
13400.000000	78.173111	72.1044
13600.000000	78.776665	74.7531
13800.000000	79.446724	76.5464
14000.000000	80.155739	77.1607
14300.000000	81.249115	75.8802
14500.000000	81.932610	73.2001
14750.000000	82.606880	67.5343
15000.000000	82.902596	59.9339
15250.000000	82.702736	51.8661
15500.000000	82.145866	44.9314
15750.000000	81.348076	39.7116
16000.000000	80.563782	36.1697
16250.000000	79.839600	33.7312
16500.000000	79.330811	31.7952
16750.000000	79.052002	29.9624
17000.000000	78.997742	27.4156
17250.000000	79.211754	22.5312
17500.000000	79.531494	14.4640
17750.000000	79.705353	-0.0460
18000.000000	79.119026	-21.2573
18250.000000	77.590790	-42.9919
18500.000000	75.402405	-60.6149
18750.000000	73.109352	-71.8447
19000.000000	71.134827	-79.2005
19250.000000	69.386993	-86.5513
19500.000000	67.872353	-93.3240
19750.000000	66.480766	-105.1478
