* Measurement data measured by REW V5.20 Beta 60
* Source: Headset (USB-C to 3.5mm Headphone Jack Adapter), MICROPHONE (Master Volume), R, volume: 0.250
* Format: 256k Log Swept Sine, 1 sweep at -12.0 dBFS with no timing reference
* Dated: Oct 10, 2020 3:55:48 PM
* REW Settings:
*  C-weighting compensation: Off
*  Target level: 75.0 dB
* Note: ; 
* Measurement: Moondrop Starfield L
* Smoothing: None
* Frequency Step: 1/48 octave
* Start Frequency: 20.000 Hz
*
* Freq(Hz)	SPL(dB)	Phase(degrees)
20.000000	89.555466	-162.2416
20.299999	89.616211	-162.9993
20.600000	89.630630	-163.7390
20.900000	89.605293	-164.2490
21.200001	89.575409	-164.4164
21.400000	89.572464	-164.3814
21.799999	89.619560	-164.2173
22.000000	89.666527	-164.2301
22.400000	89.773430	-164.6728
22.700001	89.823280	-165.2758
23.000000	89.829910	-165.9178
23.299999	89.809982	-166.4441
23.600000	89.784706	-166.8207
24.000000	89.770432	-167.2400
24.299999	89.770287	-167.6996
24.700001	89.750778	-168.6093
25.000000	89.685852	-169.3631
25.400000	89.533714	-170.0702
25.799999	89.371704	-170.0299
26.200001	89.308487	-169.3990
26.500000	89.357399	-168.9763
26.900000	89.510162	-169.0135
27.200001	89.627586	-169.6241
27.600000	89.713577	-170.9547
28.000000	89.691132	-172.2704
28.500000	89.588585	-173.1602
29.000000	89.550201	-173.2049
29.500000	89.639008	-173.2230
30.000000	89.769722	-173.8816
30.400000	89.827644	-174.8203
30.700001	89.821968	-175.5652
31.100000	89.756958	-176.3390
31.500000	89.661217	-176.6891
32.000000	89.569458	-176.5526
32.500000	89.559601	-176.2724
33.000000	89.592499	-176.3843
33.500000	89.588142	-176.9025
34.000000	89.519974	-177.3242
34.500000	89.462189	-177.3255
35.000000	89.486816	-177.2014
35.500000	89.578598	-177.5859
36.000000	89.641602	-178.6096
36.500000	89.613594	-179.8148
37.000000	89.518433	179.4087
37.500000	89.430878	179.2521
38.200001	89.420013	179.6362
38.700001	89.504234	179.8367
39.500000	89.695572	179.1601
40.000000	89.729172	178.1150
40.599998	89.599899	177.0455
41.200001	89.400604	177.2260
41.799999	89.355240	178.2310
42.500000	89.493378	178.2915
43.099998	89.506256	177.1140
43.700001	89.371521	176.3813
44.400002	89.312012	176.6122
45.000000	89.419388	176.1946
45.500000	89.445900	175.1548
46.200001	89.330925	174.4886
46.799999	89.354744	175.0572
47.500000	89.526619	174.5616
48.200001	89.401978	173.6051
48.700001	89.236397	174.5503
49.400002	89.379486	176.3744
50.000000	89.470306	175.0011
50.799999	88.616989	174.1069
51.500000	88.076630	-178.0040
52.200001	89.071152	-172.7771
53.000000	89.873367	-178.1705
53.799999	89.403091	176.4592
54.500000	89.003120	176.0129
55.200001	88.987259	174.8464
56.000000	88.816757	172.3049
57.000000	88.669914	171.6923
58.000000	88.808502	170.5123
59.000000	88.806427	170.0022
60.000000	88.930008	170.3278
60.799999	88.986847	169.9812
61.500000	88.928185	169.7217
62.200001	88.831490	169.8389
63.000000	88.750786	170.0015
64.000000	88.642563	169.8036
65.000000	88.572388	169.5110
66.000000	88.518219	168.7058
67.000000	88.431076	168.3425
68.000000	88.444229	168.5122
69.000000	88.537857	168.3154
70.000000	88.510933	167.5921
71.000000	88.384239	167.8476
72.000000	88.388458	168.0552
73.000000	88.305702	167.4796
74.000000	88.196259	167.4767
75.000000	88.176926	167.1954
76.199997	88.123138	166.7729
77.500000	88.128990	166.0215
78.800003	87.936546	166.2538
80.000000	88.125732	166.7070
81.199997	87.980240	165.2026
82.500000	87.872231	166.2765
83.800003	87.853050	165.8597
85.000000	87.784958	165.9920
86.199997	87.746689	166.3224
87.500000	87.810730	165.7003
88.500000	87.654015	165.3570
90.000000	87.666306	165.1050
91.199997	87.449799	164.8995
92.500000	87.467438	165.2834
93.800003	87.392960	165.6786
95.000000	87.488281	165.4202
96.199997	87.360214	165.1479
97.500000	87.315125	164.8323
98.800003	87.145119	164.9583
100.000000	87.163040	164.5415
101.500000	87.105965	163.8510
103.000000	86.954643	162.8745
104.400002	87.040947	163.7149
106.000000	86.932571	163.4454
107.500000	87.016205	164.1888
109.000000	86.877365	164.2556
110.599998	86.812477	164.2869
112.000000	86.626549	164.1848
113.800003	86.616974	164.1213
115.000000	86.522766	164.1205
117.199997	86.732567	163.3430
118.000000	86.546219	162.7803
120.599998	86.509087	164.3489
122.000000	86.414291	163.9713
124.099998	86.348656	164.3424
125.000000	86.301750	164.2960
126.500000	86.347054	164.0182
128.000000	86.112625	164.4743
131.500000	86.122055	164.4075
132.000000	86.140686	164.4467
134.000000	86.037201	163.9443
136.000000	86.015221	164.1206
138.000000	85.905365	165.3824
140.000000	85.781082	165.0200
143.000000	85.684654	165.1187
145.000000	85.628113	165.2940
147.500000	85.670616	165.2845
150.000000	85.533905	165.3620
152.500000	85.503387	166.0721
155.000000	85.282761	166.8936
157.500000	85.343887	166.2413
160.000000	85.382805	168.1466
162.500000	85.289711	166.6123
165.000000	85.148453	167.1396
167.500000	85.039894	167.2010
170.000000	84.836227	166.6555
172.500000	85.112778	167.2169
175.000000	84.857109	167.2076
177.500000	84.764900	167.5194
180.000000	84.722794	168.5177
182.500000	84.704987	168.7002
185.000000	84.599564	168.7476
187.500000	84.569115	169.2079
190.000000	84.474785	169.1665
192.500000	84.444374	169.3819
195.000000	84.397247	169.0131
197.500000	84.399399	169.4117
200.000000	84.217377	170.1178
203.000000	84.188782	170.3052
206.000000	84.255890	170.1629
209.000000	84.181229	170.9192
212.000000	83.979591	171.1866
214.000000	83.986023	171.7906
218.000000	83.974426	172.2515
220.000000	83.925438	172.1666
224.000000	83.712273	172.8700
227.000000	83.688637	173.1511
230.000000	83.715958	173.0923
233.000000	83.687813	173.4023
236.000000	83.660553	174.0124
240.000000	83.507973	174.5124
243.000000	83.516129	174.4238
247.000000	83.439041	175.2522
250.000000	83.417778	175.3415
254.000000	83.357094	176.2056
258.000000	83.298317	176.6776
262.000000	83.250946	176.9196
265.000000	83.187500	177.4352
269.000000	83.119621	177.9193
272.000000	83.094276	178.4533
276.000000	83.001221	178.7575
280.000000	83.002960	178.9901
285.000000	82.922035	179.6152
290.000000	82.875526	-179.9520
295.000000	82.832260	-179.1349
300.000000	82.750267	-178.4334
304.000000	82.844406	-178.7408
307.000000	82.756683	-177.9472
311.000000	82.663925	-177.1161
315.000000	82.598618	-177.0264
320.000000	82.611290	-176.4250
325.000000	82.554337	-175.5676
330.000000	82.500542	-175.2735
335.000000	82.401451	-174.2793
340.000000	82.343330	-174.0145
345.000000	82.377113	-173.1941
350.000000	82.236565	-173.1172
355.000000	82.255859	-172.2997
360.000000	82.204651	-171.4587
365.000000	82.171165	-170.8572
370.000000	82.145889	-170.4241
375.000000	82.128685	-169.7639
382.000000	82.101089	-168.8419
387.000000	82.058296	-168.3891
395.000000	81.996025	-167.5352
400.000000	81.965286	-166.9087
406.000000	81.923386	-166.3020
412.000000	81.911591	-165.6622
418.000000	81.889290	-164.8492
425.000000	81.852722	-164.2074
431.000000	81.811913	-162.9597
437.000000	81.776726	-162.7715
444.000000	81.771912	-162.0029
450.000000	81.761765	-161.1789
455.000000	81.727859	-160.8008
462.000000	81.686775	-159.8740
468.000000	81.665451	-159.3162
475.000000	81.659683	-158.9397
482.000000	81.637108	-157.8845
487.000000	81.608116	-157.7322
494.000000	81.610497	-156.7335
500.000000	81.610321	-156.2393
508.000000	81.588570	-155.2137
515.000000	81.533669	-154.7286
522.000000	81.531013	-153.8061
530.000000	81.512199	-153.0660
538.000000	81.500648	-152.0654
545.000000	81.451462	-151.5184
552.000000	81.504234	-150.6071
560.000000	81.456619	-149.6820
570.000000	81.407272	-148.6711
580.000000	81.402779	-147.6919
590.000000	81.385071	-146.4610
600.000000	81.356384	-145.3332
608.000000	81.350807	-144.6317
615.000000	81.363739	-143.8654
622.000000	81.379700	-143.2812
630.000000	81.354721	-142.2446
640.000000	81.370369	-141.2684
650.000000	81.374245	-140.1614
660.000000	81.362595	-139.2794
670.000000	81.337395	-138.0309
680.000000	81.364075	-137.1064
690.000000	81.350876	-135.7589
700.000000	81.387939	-134.7589
710.000000	81.416306	-134.3854
720.000000	81.421921	-132.6017
730.000000	81.404541	-131.6988
740.000000	81.475479	-130.5938
750.000000	81.470291	-129.5462
762.000000	81.550011	-127.8422
775.000000	81.614502	-126.0361
788.000000	81.524284	-125.1888
800.000000	81.570328	-124.1475
812.000000	81.628723	-123.0849
825.000000	81.684235	-122.0281
838.000000	81.709290	-120.8116
850.000000	81.735634	-119.4864
862.000000	81.798347	-118.8780
875.000000	81.771584	-118.2171
885.000000	81.602386	-117.2062
900.000000	81.552643	-113.9842
912.000000	81.681038	-111.8744
925.000000	81.867882	-110.1451
938.000000	82.032845	-108.7403
950.000000	82.140915	-107.5626
962.000000	82.285065	-106.3512
975.000000	82.415512	-105.3217
988.000000	82.563728	-104.2945
1000.000000	82.734787	-103.2606
1015.000000	82.792793	-102.3616
1030.000000	82.897232	-101.4093
1044.000000	83.024170	-100.4398
1060.000000	83.155350	-99.4183
1075.000000	83.280365	-98.4683
1090.000000	83.412231	-97.5458
1106.000000	83.544830	-96.6447
1120.000000	83.667618	-95.8878
1138.000000	83.817215	-94.8846
1150.000000	83.927643	-94.2519
1172.000000	84.120270	-93.2485
1180.000000	84.173637	-92.8347
1206.000000	84.381470	-91.7035
1220.000000	84.500427	-91.0921
1241.000000	84.677002	-90.2785
1250.000000	84.743927	-89.9426
1265.000000	84.857536	-89.4072
1280.000000	84.967667	-88.8148
1315.000000	85.223213	-87.6128
1320.000000	85.258911	-87.4524
1340.000000	85.397446	-86.8137
1360.000000	85.535721	-86.1199
1380.000000	85.660141	-85.5134
1400.000000	85.791206	-84.8219
1430.000000	85.974823	-83.8435
1450.000000	86.093834	-83.2551
1475.000000	86.245888	-82.4979
1500.000000	86.392807	-81.7386
1525.000000	86.540627	-80.9849
1550.000000	86.676826	-80.2287
1575.000000	86.824295	-79.5413
1600.000000	86.967155	-78.7373
1625.000000	87.114990	-78.0555
1650.000000	87.260284	-77.3564
1675.000000	87.402122	-76.7236
1700.000000	87.544197	-76.0864
1725.000000	87.687981	-75.4749
1750.000000	87.825172	-74.9011
1775.000000	87.960472	-74.3050
1800.000000	88.094055	-73.7305
1825.000000	88.229660	-73.2486
1850.000000	88.358719	-72.7594
1875.000000	88.490463	-72.2401
1900.000000	88.631332	-71.8054
1925.000000	88.751678	-71.3602
1950.000000	88.867012	-71.0161
1975.000000	88.970245	-70.7182
2000.000000	89.022583	-70.7179
2030.000000	89.217453	-69.9718
2060.000000	89.346573	-69.6190
2090.000000	89.455849	-69.3184
2120.000000	89.552689	-68.9409
2140.000000	89.612503	-68.6773
2180.000000	89.727592	-67.9376
2200.000000	89.783798	-67.5608
2240.000000	89.975342	-66.8145
2270.000000	90.138817	-66.6684
2300.000000	90.302338	-67.1853
2330.000000	90.468399	-67.9349
2360.000000	90.556801	-68.8276
2400.000000	90.637558	-69.7225
2430.000000	90.676697	-70.0995
2470.000000	90.686096	-70.2711
2500.000000	90.681023	-70.3750
2540.000000	90.676651	-70.3509
2580.000000	90.641388	-70.3140
2620.000000	90.599236	-70.1332
2650.000000	90.557419	-69.9046
2690.000000	90.481094	-69.4242
2720.000000	90.456123	-68.8910
2760.000000	90.402946	-68.0058
2800.000000	90.403053	-67.0251
2850.000000	90.467972	-65.9865
2900.000000	90.540520	-65.3774
2950.000000	90.630127	-64.9908
3000.000000	90.685188	-64.7215
3040.000000	90.671822	-65.2008
3070.000000	90.649651	-65.2557
3110.000000	90.587227	-65.3017
3150.000000	90.518097	-65.1061
3200.000000	90.413239	-64.8933
3250.000000	90.295998	-64.4306
3300.000000	90.189583	-63.9458
3350.000000	90.070175	-63.3014
3400.000000	89.949860	-62.5919
3450.000000	89.845375	-61.6024
3500.000000	89.785095	-60.5220
3550.000000	89.738106	-59.5170
3600.000000	89.730530	-58.2412
3650.000000	89.732498	-57.2331
3700.000000	89.737679	-56.0929
3750.000000	89.711601	-55.3793
3820.000000	89.759628	-54.2256
3870.000000	89.738922	-53.3346
3950.000000	89.780884	-52.0898
4000.000000	89.767723	-51.4609
4060.000000	89.834923	-50.6823
4120.000000	89.794846	-50.1682
4180.000000	89.795036	-49.6077
4250.000000	89.807739	-48.9358
4310.000000	89.784477	-48.5501
4370.000000	89.758301	-48.1600
4440.000000	89.743088	-47.7995
4500.000000	89.701027	-47.5034
4550.000000	89.667252	-47.2338
4620.000000	89.611008	-46.8841
4680.000000	89.531166	-46.6169
4750.000000	89.469467	-46.3057
4820.000000	89.364281	-46.1701
4870.000000	89.288284	-45.7833
4940.000000	89.171387	-45.6715
5000.000000	89.063164	-45.6013
5080.000000	88.914391	-45.0437
5150.000000	88.760422	-44.6451
5220.000000	88.588509	-44.1974
5300.000000	88.394394	-43.6295
5380.000000	88.176140	-42.8545
5450.000000	87.981773	-42.1510
5520.000000	87.727516	-41.3130
5600.000000	87.446243	-40.1753
5700.000000	87.093658	-38.5632
5800.000000	86.762939	-36.7689
5900.000000	86.451424	-34.7023
6000.000000	86.150139	-32.4840
6080.000000	85.946182	-30.5729
6150.000000	85.777359	-28.9795
6220.000000	85.628799	-27.2155
6300.000000	85.490356	-25.2174
6400.000000	85.333908	-22.5710
6500.000000	85.215027	-19.8298
6600.000000	85.151131	-17.2644
6700.000000	85.122986	-14.5430
6800.000000	85.134995	-11.9727
6900.000000	85.219452	-9.4729
7000.000000	85.363739	-7.2203
7100.000000	85.589355	-4.9376
7200.000000	85.844345	-3.1200
7300.000000	86.175262	-1.6226
7400.000000	86.551933	-0.8117
7500.000000	86.960442	-0.6024
7620.000000	87.444107	-1.5418
7750.000000	87.924225	-4.1167
7880.000000	88.213028	-8.5782
8000.000000	88.225601	-13.6460
8120.000000	87.986366	-19.4445
8250.000000	87.340515	-25.4305
8380.000000	86.366356	-30.1443
8500.000000	85.284851	-33.1969
8620.000000	84.140411	-34.5239
8750.000000	82.851242	-34.3010
8850.000000	81.878067	-33.4334
9000.000000	80.485092	-30.7823
9120.000000	79.497192	-27.9487
9250.000000	78.446228	-24.2781
9380.000000	77.498924	-20.1459
9500.000000	76.693604	-16.1748
9620.000000	75.939148	-11.8323
9750.000000	75.187904	-7.0843
9880.000000	74.470917	-1.8127
10000.000000	73.920853	2.7834
10150.000000	73.242149	8.9789
10300.000000	72.684998	15.6173
10440.000000	72.160103	21.3155
10600.000000	71.527412	28.1045
10750.000000	71.187897	35.4506
10900.000000	70.770363	42.1495
11060.000000	70.475510	50.3052
11200.000000	70.247406	57.7743
11380.000000	70.065338	68.1875
11500.000000	70.107399	76.1786
11720.000000	70.619576	91.4585
11800.000000	71.214096	97.1507
12060.000000	73.464500	112.2873
12200.000000	75.110390	115.9751
12410.000000	77.385201	116.3014
12500.000000	78.191490	115.4722
12650.000000	79.374092	114.2602
12800.000000	80.525146	113.4112
13150.000000	84.060425	109.7676
13200.000000	84.714447	108.5066
13400.000000	87.793045	97.7364
13600.000000	90.531433	69.7856
13800.000000	89.440628	33.2203
14000.000000	86.195755	14.8727
14300.000000	82.307861	8.3938
14500.000000	80.554306	9.1077
14750.000000	79.098961	11.4075
15000.000000	78.221039	14.2141
15250.000000	77.859863	16.6351
15500.000000	78.010933	17.5878
15750.000000	78.702690	16.0725
16000.000000	79.920502	9.8778
16250.000000	81.375771	-5.4824
16500.000000	81.702682	-32.6101
16750.000000	79.528816	-59.2481
17000.000000	76.376762	-75.2365
17250.000000	73.582542	-83.5648
17500.000000	71.124466	-87.9075
17750.000000	69.199768	-92.9944
18000.000000	67.652870	-100.9961
18250.000000	66.467407	-110.4743
18500.000000	65.389320	-120.4350
18750.000000	64.749023	-130.7659
19000.000000	63.810112	-138.4772
19250.000000	63.546131	-151.0922
19500.000000	63.603523	-163.2370
19750.000000	63.837196	177.3973
