* Measurement data measured by REW V5.20 Beta 60
* Source: Headset (USB-C to 3.5mm Headphone Jack Adapter), MICROPHONE (Master Volume), R, volume: 0.250
* Format: 256k Log Swept Sine, 1 sweep at -12.0 dBFS with no timing reference
* Dated: Jun 12, 2021 5:26:34 PM
* REW Settings:
*  C-weighting compensation: Off
*  Target level: 75.0 dB
* Note: ; 
* Measurement: 1000 R
* Smoothing: None
* Frequency Step: 1/48 octave
* Start Frequency: 20.000 Hz
*
* Freq(Hz)	SPL(dB)	Phase(degrees)
20.000000	95.261223	-7.8647
20.299999	95.279648	-8.1531
20.600000	95.294823	-8.4927
20.900000	95.302132	-8.8636
21.200001	95.303017	-9.2584
21.400000	95.297607	-9.5118
21.799999	95.274628	-9.9481
22.000000	95.260735	-10.1195
22.400000	95.240028	-10.3780
22.700001	95.233566	-10.4918
23.000000	95.239784	-10.5857
23.299999	95.259232	-10.7238
23.600000	95.283806	-10.9285
24.000000	95.311203	-11.3154
24.299999	95.320969	-11.6630
24.700001	95.315811	-12.1184
25.000000	95.302017	-12.4055
25.400000	95.282433	-12.7071
25.799999	95.266983	-12.9289
26.200001	95.259163	-13.1430
26.500000	95.256180	-13.3242
26.900000	95.249672	-13.5756
27.200001	95.243126	-13.7656
27.600000	95.234779	-14.0091
28.000000	95.226669	-14.2479
28.500000	95.219963	-14.5885
29.000000	95.210213	-14.9716
29.500000	95.193939	-15.3798
30.000000	95.167557	-15.7408
30.400000	95.146561	-15.9788
30.700001	95.133385	-16.1195
31.100000	95.123489	-16.2899
31.500000	95.123009	-16.4843
32.000000	95.126892	-16.7837
32.500000	95.128464	-17.1470
33.000000	95.122459	-17.5064
33.500000	95.113167	-17.8461
34.000000	95.103111	-18.1810
34.500000	95.092972	-18.5507
35.000000	95.071106	-18.9147
35.500000	95.039291	-19.2094
36.000000	95.007431	-19.4001
36.500000	94.984268	-19.5495
37.000000	94.968613	-19.7051
37.500000	94.956833	-19.8782
38.200001	94.945877	-20.1123
38.700001	94.948227	-20.3354
39.500000	94.945435	-20.9294
40.000000	94.914307	-21.3218
40.599998	94.860886	-21.5927
41.200001	94.840439	-21.6842
41.799999	94.857681	-21.9501
42.500000	94.854263	-22.6135
43.099998	94.804558	-23.1415
43.700001	94.749634	-23.4304
44.400002	94.712189	-23.6460
45.000000	94.696068	-23.8640
45.500000	94.689651	-24.0760
46.200001	94.685776	-24.4551
46.799999	94.671143	-24.8801
47.500000	94.630051	-25.3185
48.200001	94.588036	-25.5577
48.700001	94.573563	-25.6994
49.400002	94.562965	-25.9902
50.000000	94.539940	-26.2844
50.799999	94.506371	-26.6045
51.500000	94.493690	-26.8648
52.200001	94.473404	-27.2803
53.000000	94.418411	-27.7048
53.799999	94.375847	-27.9791
54.500000	94.343201	-28.3546
55.200001	94.285225	-28.7371
56.000000	94.215446	-28.9573
57.000000	94.166138	-29.1571
58.000000	94.132095	-29.5539
59.000000	94.072647	-29.7755
60.000000	94.120148	-29.9786
60.799999	94.108109	-30.8743
61.500000	94.016212	-31.2034
62.200001	94.000084	-31.1403
63.000000	94.005173	-31.6632
64.000000	93.918251	-31.9666
65.000000	93.925957	-32.4392
66.000000	93.795044	-32.9501
67.000000	93.786964	-32.9877
68.000000	93.673836	-33.6537
69.000000	93.669952	-33.2750
70.000000	93.667404	-34.4631
71.000000	93.524155	-34.3114
72.000000	93.600319	-34.7339
73.000000	93.472313	-35.3689
74.000000	93.471870	-35.2110
75.000000	93.428169	-35.8470
76.199997	93.392242	-36.0265
77.500000	93.280304	-36.6140
78.800003	93.282753	-36.8259
80.000000	93.162437	-37.4512
81.199997	93.151794	-37.5420
82.500000	93.052147	-38.0582
83.800003	93.051147	-38.1942
85.000000	92.982811	-38.7548
86.199997	92.911514	-38.9924
87.500000	92.865822	-39.2374
88.500000	92.809402	-39.7436
90.000000	92.725044	-39.9287
91.199997	92.675240	-40.5052
92.500000	92.577003	-40.8979
93.800003	92.502731	-40.7624
95.000000	92.538582	-41.2379
96.199997	92.428444	-41.7828
97.500000	92.364601	-42.0400
98.800003	92.304184	-41.8368
100.000000	92.328545	-42.9549
101.500000	92.124977	-42.4874
103.000000	92.126976	-43.8153
104.400002	92.052422	-43.1699
106.000000	91.879791	-43.8922
107.500000	92.038155	-43.9950
109.000000	91.759384	-45.0576
110.599998	91.808968	-44.2424
112.000000	91.706078	-45.7033
113.800003	91.741928	-45.9942
115.000000	91.419327	-45.7147
117.199997	91.486679	-46.8028
118.000000	91.430527	-45.7774
120.599998	91.359886	-45.6511
122.000000	91.358978	-48.1553
124.099998	91.194046	-47.0252
125.000000	91.088158	-47.0000
126.500000	91.308022	-47.0171
128.000000	91.051262	-48.2711
131.500000	90.653778	-47.8754
132.000000	90.766579	-46.6480
134.000000	90.764732	-49.9419
136.000000	90.912483	-49.3969
138.000000	90.389603	-47.5869
140.000000	90.787781	-49.3876
143.000000	90.280357	-50.4525
145.000000	90.571022	-50.0274
147.500000	90.124214	-50.1764
150.000000	90.297981	-51.0232
152.500000	90.182693	-51.1983
155.000000	89.604309	-51.3281
157.500000	89.902130	-50.5059
160.000000	89.824120	-52.7177
162.500000	89.486588	-50.9967
165.000000	89.995560	-52.4519
167.500000	89.200928	-50.7397
170.000000	89.586021	-55.1462
172.500000	89.368790	-52.6276
175.000000	89.297028	-53.8652
177.500000	89.026970	-53.6563
180.000000	88.999916	-53.4620
182.500000	88.762466	-53.8285
185.000000	88.599419	-52.8003
187.500000	88.745567	-51.1052
190.000000	88.632126	-53.5064
192.500000	88.765739	-53.2540
195.000000	88.478867	-53.8589
197.500000	88.301453	-54.5945
200.000000	88.439171	-55.0276
203.000000	88.191032	-56.3743
206.000000	88.381134	-56.1081
209.000000	88.024017	-56.8947
212.000000	88.121841	-56.8880
214.000000	87.983658	-55.5556
218.000000	87.903046	-55.7061
220.000000	87.628181	-58.8690
224.000000	88.226974	-58.5142
227.000000	87.965210	-56.1871
230.000000	87.538345	-56.6932
233.000000	87.435539	-58.9346
236.000000	87.445236	-58.0265
240.000000	87.527557	-53.4063
243.000000	87.065010	-55.8034
247.000000	87.195778	-58.8727
250.000000	87.226929	-59.0095
254.000000	87.074448	-57.9638
258.000000	87.168205	-55.3024
262.000000	87.075386	-55.9045
265.000000	86.820114	-54.3632
269.000000	86.688400	-55.9306
272.000000	86.708122	-56.6197
276.000000	86.390457	-56.5404
280.000000	86.304398	-56.3039
285.000000	86.316605	-59.2739
290.000000	86.240707	-58.5249
295.000000	86.062622	-55.5970
300.000000	85.833450	-57.8614
304.000000	85.986206	-57.8277
307.000000	85.985504	-59.1629
311.000000	85.980690	-58.7839
315.000000	85.811691	-57.8595
320.000000	85.680550	-59.5196
325.000000	85.583572	-58.1610
330.000000	85.568146	-58.4403
335.000000	85.453827	-58.4269
340.000000	85.394150	-58.3800
345.000000	85.268852	-58.6497
350.000000	85.277466	-59.1002
355.000000	85.111069	-58.7842
360.000000	85.065178	-58.5326
365.000000	85.007713	-58.5970
370.000000	84.942535	-58.8938
375.000000	84.832077	-58.8163
382.000000	84.793747	-57.5814
387.000000	84.849167	-58.8296
395.000000	84.658272	-58.0454
400.000000	84.531906	-58.2629
406.000000	84.462532	-58.3422
412.000000	84.387619	-58.6997
418.000000	84.395546	-59.1932
425.000000	84.325821	-58.6213
431.000000	84.261414	-58.4214
437.000000	84.260315	-58.2905
444.000000	84.222870	-57.8274
450.000000	84.130219	-57.6234
455.000000	84.044937	-58.2418
462.000000	83.997574	-57.7635
468.000000	83.957764	-58.2369
475.000000	83.928093	-58.0013
482.000000	83.841713	-58.2184
487.000000	83.817001	-58.1754
494.000000	83.763115	-57.9942
500.000000	83.749168	-58.0333
508.000000	83.706985	-57.7529
515.000000	83.658195	-57.5145
522.000000	83.605072	-57.6082
530.000000	83.570808	-57.5233
538.000000	83.536255	-57.4198
545.000000	83.498863	-57.4367
552.000000	83.481384	-57.1012
560.000000	83.434212	-56.9805
570.000000	83.398499	-56.8760
580.000000	83.362061	-56.6395
590.000000	83.324844	-56.4792
600.000000	83.293716	-56.3694
608.000000	83.283012	-56.2201
615.000000	83.295555	-55.9088
622.000000	83.275238	-55.6228
630.000000	83.259613	-55.5514
640.000000	83.246918	-55.3009
650.000000	83.239281	-54.9041
660.000000	83.242035	-54.7400
670.000000	83.268646	-54.5724
680.000000	83.253922	-54.2865
690.000000	83.287117	-54.0559
700.000000	83.300705	-53.6656
710.000000	83.320938	-53.4973
720.000000	83.342773	-53.1170
730.000000	83.353714	-53.0782
740.000000	83.391258	-52.9024
750.000000	83.440491	-52.6680
762.000000	83.467033	-52.5200
775.000000	83.517242	-52.1484
788.000000	83.558510	-51.9553
800.000000	83.598953	-51.8186
812.000000	83.657738	-51.6261
825.000000	83.703156	-51.3873
838.000000	83.759987	-51.2409
850.000000	83.801979	-51.1142
862.000000	83.861389	-50.9462
875.000000	83.929802	-50.7232
885.000000	83.975830	-50.6320
900.000000	84.054871	-50.4595
912.000000	84.130730	-50.2761
925.000000	84.196121	-50.1256
938.000000	84.281776	-49.9938
950.000000	84.357346	-49.8214
962.000000	84.435120	-49.7601
975.000000	84.515892	-49.6255
988.000000	84.630280	-49.4364
1000.000000	84.770294	-49.2370
1015.000000	84.807373	-49.4108
1030.000000	84.897621	-49.4972
1044.000000	85.005516	-49.5485
1060.000000	85.125824	-49.6528
1075.000000	85.229912	-49.7885
1090.000000	85.355942	-49.9276
1106.000000	85.489265	-50.2269
1120.000000	85.593002	-50.4529
1138.000000	85.730087	-50.8349
1150.000000	85.820686	-51.0361
1172.000000	85.964005	-51.5800
1180.000000	86.021133	-51.7868
1206.000000	86.183739	-52.4807
1220.000000	86.282211	-52.8125
1241.000000	86.408859	-53.4017
1250.000000	86.458954	-53.7556
1265.000000	86.536064	-54.1739
1280.000000	86.613838	-54.5438
1315.000000	86.779518	-55.5813
1320.000000	86.804817	-55.7132
1340.000000	86.886185	-56.2926
1360.000000	86.966843	-56.7581
1380.000000	87.040916	-57.2709
1400.000000	87.102631	-57.7484
1430.000000	87.205956	-58.4634
1450.000000	87.263199	-58.8602
1475.000000	87.337532	-59.3616
1500.000000	87.413239	-59.8248
1525.000000	87.477783	-60.2516
1550.000000	87.546417	-60.6897
1575.000000	87.616447	-61.0484
1600.000000	87.688614	-61.4205
1625.000000	87.754616	-61.7595
1650.000000	87.824326	-62.0728
1675.000000	87.893814	-62.3753
1700.000000	87.957108	-62.6762
1725.000000	88.031448	-62.9731
1750.000000	88.102104	-63.3350
1775.000000	88.169930	-63.5616
1800.000000	88.231506	-63.8740
1825.000000	88.304230	-64.2002
1850.000000	88.372139	-64.4780
1875.000000	88.441254	-64.8351
1900.000000	88.500191	-65.1877
1925.000000	88.569855	-65.5249
1950.000000	88.621674	-65.8877
1975.000000	88.663124	-66.3339
2000.000000	88.656555	-67.0565
2030.000000	88.783356	-67.2594
2060.000000	88.847504	-67.7375
2090.000000	88.892265	-68.2977
2120.000000	88.923904	-68.8961
2140.000000	88.939537	-69.3259
2180.000000	88.954895	-70.0947
2200.000000	88.954552	-70.6015
2240.000000	88.937279	-71.5753
2270.000000	88.898544	-72.5028
2300.000000	88.837288	-73.6184
2330.000000	88.787323	-74.5938
2360.000000	88.716881	-75.5347
2400.000000	88.634056	-76.7464
2430.000000	88.557236	-77.4469
2470.000000	88.375900	-78.2770
2500.000000	88.194031	-78.6953
2540.000000	87.899017	-78.9048
2580.000000	87.589134	-78.4638
2620.000000	87.306709	-77.5040
2650.000000	87.127609	-76.5519
2690.000000	86.912704	-75.0349
2720.000000	86.795532	-73.7717
2760.000000	86.654556	-71.9201
2800.000000	86.554543	-70.1031
2850.000000	86.475655	-67.6271
2900.000000	86.453125	-65.1460
2950.000000	86.492722	-62.5863
3000.000000	86.616135	-59.6241
3040.000000	86.771149	-58.0130
3070.000000	86.932907	-56.8294
3110.000000	87.174759	-55.4407
3150.000000	87.454849	-54.7185
3200.000000	87.752785	-54.5095
3250.000000	87.994499	-54.9088
3300.000000	88.113808	-55.3860
3350.000000	88.163460	-55.5435
3400.000000	88.216003	-55.4506
3450.000000	88.279137	-55.2240
3500.000000	88.358749	-54.9831
3550.000000	88.422646	-54.7953
3600.000000	88.489838	-54.4350
3650.000000	88.563820	-53.9973
3700.000000	88.654877	-53.6072
3750.000000	88.753746	-53.2417
3820.000000	88.908218	-52.8051
3870.000000	89.003059	-52.4304
3950.000000	89.184433	-52.1215
4000.000000	89.293922	-52.2254
4060.000000	89.509613	-52.1528
4120.000000	89.685165	-52.6655
4180.000000	89.856644	-53.6618
4250.000000	89.995934	-55.1354
4310.000000	90.052208	-56.7580
4370.000000	90.034142	-58.6102
4440.000000	89.907478	-60.7868
4500.000000	89.706665	-62.6279
4550.000000	89.477951	-63.9609
4620.000000	89.073723	-65.3787
4680.000000	88.649292	-66.0946
4750.000000	88.107895	-66.2313
4820.000000	87.537842	-65.6552
4870.000000	87.127304	-64.6457
4940.000000	86.583755	-62.6442
5000.000000	86.138000	-60.4387
5080.000000	85.636566	-56.3875
5150.000000	85.271942	-52.2895
5220.000000	85.025696	-47.6820
5300.000000	84.869476	-42.1445
5380.000000	84.896500	-36.2243
5450.000000	85.049065	-31.2096
5520.000000	85.323196	-26.3796
5600.000000	85.783379	-21.4374
5700.000000	86.571930	-16.5923
5800.000000	87.514969	-13.8992
5900.000000	88.466484	-13.6567
6000.000000	89.242256	-15.8249
6080.000000	89.641571	-18.7036
6150.000000	89.790146	-21.4901
6220.000000	89.757889	-24.0428
6300.000000	89.567909	-26.1655
6400.000000	89.176262	-27.4328
6500.000000	88.751465	-27.1979
6600.000000	88.366783	-25.7625
6700.000000	88.091125	-23.3484
6800.000000	87.927444	-20.2804
6900.000000	87.914520	-16.9052
7000.000000	88.084549	-13.3331
7100.000000	88.380913	-9.8095
7200.000000	88.842087	-6.4270
7300.000000	89.505798	-3.5656
7400.000000	90.365860	-1.8439
7500.000000	91.367630	-2.1241
7620.000000	92.502838	-5.9483
7750.000000	93.317032	-12.8150
7880.000000	93.706718	-21.3836
8000.000000	93.598251	-30.5712
8120.000000	92.901192	-39.3145
8250.000000	91.631638	-46.0879
8380.000000	90.160217	-49.1920
8500.000000	88.826340	-49.3773
8620.000000	87.620468	-47.7668
8750.000000	86.432281	-44.6087
8850.000000	85.629128	-41.4555
9000.000000	84.596809	-35.7498
9120.000000	83.970444	-30.8286
9250.000000	83.427277	-25.2876
9380.000000	83.035332	-19.6738
9500.000000	82.822678	-14.7736
9620.000000	82.737564	-10.1358
9750.000000	82.764450	-5.6288
9880.000000	82.949257	-2.2854
10000.000000	83.167633	-0.4804
10150.000000	83.418991	-0.5209
10300.000000	83.339600	-3.0955
10440.000000	82.732208	-5.9214
10600.000000	81.466721	-6.4926
10750.000000	80.189301	-3.1211
10900.000000	79.120491	3.3460
11060.000000	78.333717	12.3614
11200.000000	77.991348	20.5572
11380.000000	77.971367	30.6289
11500.000000	78.140076	36.8617
11720.000000	78.772240	46.3969
11800.000000	79.062691	49.0719
12060.000000	80.152824	56.2108
12200.000000	80.853134	58.2681
12410.000000	81.942101	59.7969
12500.000000	82.358429	59.7976
12650.000000	83.071472	58.4220
12800.000000	83.664589	56.4256
13150.000000	84.589134	48.6039
13200.000000	84.684822	47.3529
13400.000000	84.879326	41.3874
13600.000000	84.833260	34.2060
13800.000000	84.385231	25.9705
14000.000000	83.371246	17.9731
14300.000000	81.063477	11.1017
14500.000000	79.386055	10.4061
14750.000000	77.450470	12.4401
15000.000000	75.638969	16.3038
15250.000000	73.949219	23.7970
15500.000000	72.810356	32.4845
15750.000000	72.113983	39.2010
16000.000000	71.133072	43.5642
16250.000000	70.189186	52.7198
16500.000000	69.658920	62.0653
16750.000000	69.532616	70.3788
17000.000000	69.842590	78.0890
17250.000000	70.448463	83.0860
17500.000000	71.329102	84.8841
17750.000000	72.215546	80.1675
18000.000000	72.360687	66.6133
18250.000000	71.207794	52.5122
18500.000000	69.287262	44.7995
18750.000000	67.413078	47.1439
19000.000000	66.581490	55.4804
19250.000000	66.097214	61.4974
19500.000000	65.822586	68.4245
19750.000000	65.897141	76.2143
