* Measurement data measured by REW V5.20 Beta 60
* Source: Headset (USB-C to 3.5mm Headphone Jack Adapter), MICROPHONE (Master Volume), R, volume: 0.258
* Format: 256k Log Swept Sine, 1 sweep at -12.0 dBFS with no timing reference
* Dated: Mar 8, 2021 5:25:24 PM
* REW Settings:
*  C-weighting compensation: Off
*  Target level: 75.0 dB
* Note: ; 
* Measurement: QDC TrES R
* Smoothing: None
* Frequency Step: 1/48 octave
* Start Frequency: 20.000 Hz
*
* Freq(Hz)	SPL(dB)	Phase(degrees)
20.000000	88.288040	-179.9793
20.299999	88.304901	-179.7439
20.600000	88.367569	-179.6224
20.900000	88.451935	-179.7697
21.200001	88.527145	179.7797
21.400000	88.556488	179.3990
21.799999	88.566208	178.6603
22.000000	88.555099	178.3860
22.400000	88.536087	178.0828
22.700001	88.543434	177.9969
23.000000	88.575134	177.8615
23.299999	88.616653	177.5622
23.600000	88.646805	177.1204
24.000000	88.648438	176.4527
24.299999	88.625931	176.0394
24.700001	88.590874	175.7069
25.000000	88.580215	175.5533
25.400000	88.593414	175.2699
25.799999	88.604889	174.7843
26.200001	88.581749	174.2073
26.500000	88.542099	173.8884
26.900000	88.486832	173.7807
27.200001	88.474411	173.8817
27.600000	88.518051	173.9982
28.000000	88.601791	173.7630
28.500000	88.677223	172.8974
29.000000	88.661896	171.9948
29.500000	88.611778	171.6137
30.000000	88.623627	171.6260
30.400000	88.690109	171.4534
30.700001	88.744095	171.0789
31.100000	88.778084	170.3454
31.500000	88.753136	169.6262
32.000000	88.674454	169.1863
32.500000	88.627274	169.2484
33.000000	88.646812	169.3546
33.500000	88.692207	169.1635
34.000000	88.716942	168.7784
34.500000	88.729980	168.3743
35.000000	88.742363	167.9087
35.500000	88.733307	167.2698
36.000000	88.668381	166.6720
36.500000	88.569626	166.5072
37.000000	88.525169	166.8597
37.500000	88.593811	167.1729
38.200001	88.758224	166.4604
38.700001	88.786621	165.3163
39.500000	88.664421	164.1400
40.000000	88.605408	164.0867
40.599998	88.617500	164.0818
41.200001	88.657883	163.7088
41.799999	88.669830	163.1664
42.500000	88.657837	162.6360
43.099998	88.645264	162.2153
43.700001	88.620201	161.8076
44.400002	88.578163	161.4979
45.000000	88.560753	161.3894
45.500000	88.569824	161.2680
46.200001	88.590271	160.9184
46.799999	88.591438	160.5716
47.500000	88.607361	160.3259
48.200001	88.678055	159.8958
48.700001	88.722092	159.1872
49.400002	88.677826	158.0211
50.000000	88.565247	157.6346
50.799999	88.520844	157.9745
51.500000	88.602356	157.9042
52.200001	88.645523	157.2424
53.000000	88.616951	156.6106
53.799999	88.578651	156.2676
54.500000	88.545807	156.1878
55.200001	88.570183	156.2778
56.000000	88.659332	155.8022
57.000000	88.637512	154.6002
58.000000	88.584763	154.1746
59.000000	88.591080	153.4952
60.000000	88.567703	153.0063
60.799999	88.604141	152.5728
61.500000	88.615265	151.9047
62.200001	88.587013	151.4365
63.000000	88.586639	151.1970
64.000000	88.613197	150.6881
65.000000	88.623978	150.3233
66.000000	88.677277	149.7493
67.000000	88.638405	148.8304
68.000000	88.569847	148.7072
69.000000	88.615494	148.3424
70.000000	88.561890	147.5193
71.000000	88.518845	147.5228
72.000000	88.589691	146.9806
73.000000	88.555473	146.0307
74.000000	88.517342	145.6953
75.000000	88.536125	145.2244
76.199997	88.550407	144.5748
77.500000	88.552322	143.6240
78.800003	88.507576	143.2914
80.000000	88.575760	142.7337
81.199997	88.555450	141.9958
82.500000	88.568260	140.9780
83.800003	88.422050	140.6178
85.000000	88.528107	140.3990
86.199997	88.517914	139.5037
87.500000	88.581139	138.4981
88.500000	88.511169	137.9917
90.000000	88.625610	137.2556
91.199997	88.557579	136.6304
92.500000	88.591553	136.0092
93.800003	88.538490	135.5544
95.000000	88.547440	134.8529
96.199997	88.493912	134.3141
97.500000	88.519455	133.8057
98.800003	88.536522	132.8677
100.000000	88.523666	132.1437
101.500000	88.488403	131.3134
103.000000	88.457932	130.7618
104.400002	88.442924	130.2619
106.000000	88.463493	129.5319
107.500000	88.479996	128.5309
109.000000	88.476700	127.8656
110.599998	88.496307	127.3486
112.000000	88.542992	126.4841
113.800003	88.477730	125.9059
115.000000	88.485123	125.1517
117.199997	88.446617	124.1245
118.000000	88.478271	123.7388
120.599998	88.448418	122.3176
122.000000	88.516113	121.6793
124.099998	88.478607	120.9362
125.000000	88.458679	120.4089
126.500000	88.443207	119.6095
128.000000	88.405716	119.0717
131.500000	88.540703	117.1083
132.000000	88.542877	116.2404
134.000000	88.407684	115.8576
136.000000	88.348892	114.8986
138.000000	88.323975	113.8227
140.000000	88.536026	112.5718
143.000000	88.380928	111.4337
145.000000	88.323616	110.5175
147.500000	88.309593	109.2510
150.000000	88.286667	107.8567
152.500000	88.331726	106.7327
155.000000	88.306419	105.8156
157.500000	88.289055	104.6208
160.000000	88.307236	103.0364
162.500000	88.299934	102.0594
165.000000	88.243820	101.2293
167.500000	88.219490	100.1601
170.000000	88.271767	98.6237
172.500000	88.259186	97.6330
175.000000	88.188660	96.2418
177.500000	88.148987	94.9876
180.000000	88.134613	94.0179
182.500000	88.109283	93.0678
185.000000	88.117416	91.3386
187.500000	88.069687	90.6850
190.000000	88.065872	89.3966
192.500000	87.977707	88.2630
195.000000	87.993416	87.4433
197.500000	87.937416	86.2360
200.000000	87.923599	85.2330
203.000000	87.849167	83.6740
206.000000	87.854103	82.1542
209.000000	87.818123	80.7566
212.000000	87.778465	79.7550
214.000000	87.760254	78.7719
218.000000	87.760719	77.1896
220.000000	87.735634	76.0878
224.000000	87.794479	74.4230
227.000000	87.644470	73.2982
230.000000	87.638527	71.5984
233.000000	87.667595	70.6971
236.000000	87.574577	69.3010
240.000000	87.545448	67.9248
243.000000	87.506287	66.7299
247.000000	87.396194	64.9032
250.000000	87.459457	63.7809
254.000000	87.396034	62.3331
258.000000	87.272507	60.5692
262.000000	87.263672	59.2044
265.000000	87.260315	57.8664
269.000000	87.204865	56.0574
272.000000	87.110558	54.9518
276.000000	87.026215	52.9368
280.000000	86.932877	51.8205
285.000000	86.865952	50.1190
290.000000	86.911880	48.5076
295.000000	86.760025	46.7434
300.000000	86.697113	44.3164
304.000000	86.693146	43.5195
307.000000	86.651367	42.2534
311.000000	86.552765	40.8629
315.000000	86.511238	39.4857
320.000000	86.434784	37.7549
325.000000	86.360870	36.0131
330.000000	86.279175	34.3831
335.000000	86.214386	32.7768
340.000000	86.136887	31.1400
345.000000	86.056892	29.5555
350.000000	85.978706	27.9260
355.000000	85.913246	26.4239
360.000000	85.829094	24.9342
365.000000	85.752747	23.4960
370.000000	85.667953	22.0155
375.000000	85.602638	20.4868
382.000000	85.492325	18.3758
387.000000	85.413910	17.0201
395.000000	85.319016	14.8489
400.000000	85.224785	13.2765
406.000000	85.143730	11.8063
412.000000	85.046394	10.1847
418.000000	84.961014	8.5942
425.000000	84.870209	6.8034
431.000000	84.804832	5.1793
437.000000	84.715408	3.8480
444.000000	84.616753	2.1459
450.000000	84.523743	0.7758
455.000000	84.478760	-0.6297
462.000000	84.331100	-2.1968
468.000000	84.273094	-3.7114
475.000000	84.181633	-5.4570
482.000000	84.101410	-6.9279
487.000000	84.010536	-8.0594
494.000000	83.911621	-9.6982
500.000000	83.797623	-10.9462
508.000000	83.715073	-12.5244
515.000000	83.615250	-13.9640
522.000000	83.525070	-15.4202
530.000000	83.439827	-16.8846
538.000000	83.298325	-18.3287
545.000000	83.218826	-19.5852
552.000000	83.148117	-20.9338
560.000000	83.014107	-22.3623
570.000000	82.851181	-23.9383
580.000000	82.732834	-25.5446
590.000000	82.601700	-26.9158
600.000000	82.504913	-28.3578
608.000000	82.393700	-29.5703
615.000000	82.311813	-30.5840
622.000000	82.241127	-31.4119
630.000000	82.129089	-32.3982
640.000000	82.058350	-33.6370
650.000000	81.982079	-34.9058
660.000000	81.857758	-35.7710
670.000000	81.771141	-36.7804
680.000000	81.704712	-37.6962
690.000000	81.652519	-38.5237
700.000000	81.548050	-39.1917
710.000000	81.528000	-39.6608
720.000000	81.504349	-40.2302
730.000000	81.508591	-40.6024
740.000000	81.530579	-41.1107
750.000000	81.596832	-41.5058
762.000000	81.666901	-42.1392
775.000000	81.846695	-42.7833
788.000000	82.019997	-43.6158
800.000000	82.259216	-44.6073
812.000000	82.445023	-46.1997
825.000000	82.696533	-47.9536
838.000000	82.924164	-50.0657
850.000000	83.110855	-52.1902
862.000000	83.289574	-54.5828
875.000000	83.465454	-57.1533
885.000000	83.535233	-59.3370
900.000000	83.652115	-62.8793
912.000000	83.704605	-64.9797
925.000000	83.768425	-67.5819
938.000000	83.810318	-70.1307
950.000000	83.837372	-72.3975
962.000000	83.859825	-74.5990
975.000000	83.898834	-76.9188
988.000000	83.920509	-79.2274
1000.000000	84.043793	-81.0587
1015.000000	83.929733	-83.8137
1030.000000	83.932846	-86.3282
1044.000000	83.965157	-88.6214
1060.000000	83.988762	-91.2325
1075.000000	84.015549	-93.6871
1090.000000	84.057388	-96.0907
1106.000000	84.114670	-98.6842
1120.000000	84.155151	-100.9632
1138.000000	84.208878	-103.8706
1150.000000	84.236603	-105.8722
1172.000000	84.322456	-109.5245
1180.000000	84.342995	-110.8322
1206.000000	84.426064	-115.1965
1220.000000	84.465828	-117.4855
1241.000000	84.530472	-121.0482
1250.000000	84.567139	-122.5815
1265.000000	84.608978	-125.0947
1280.000000	84.647324	-127.6270
1315.000000	84.734718	-133.4740
1320.000000	84.741371	-134.2860
1340.000000	84.786217	-137.6099
1360.000000	84.823677	-140.8919
1380.000000	84.867020	-144.1265
1400.000000	84.937355	-147.2073
1430.000000	84.973846	-152.1194
1450.000000	85.021393	-155.3726
1475.000000	85.074219	-159.4147
1500.000000	85.087921	-163.4106
1525.000000	85.170341	-167.3298
1550.000000	85.219086	-171.2744
1575.000000	85.279915	-175.1866
1600.000000	85.328018	-178.8281
1625.000000	85.400887	177.1200
1650.000000	85.462372	173.2719
1675.000000	85.538254	169.4255
1700.000000	85.620049	165.7123
1725.000000	85.687080	161.7150
1750.000000	85.773758	157.8762
1775.000000	85.867775	153.9562
1800.000000	85.973328	150.1471
1825.000000	86.048370	146.1309
1850.000000	86.147110	142.2351
1875.000000	86.256279	138.2501
1900.000000	86.354347	134.1667
1925.000000	86.466034	130.3136
1950.000000	86.565414	126.0338
1975.000000	86.678192	122.0660
2000.000000	86.755295	117.3234
2030.000000	86.893684	112.6946
2060.000000	87.046059	107.8563
2090.000000	87.163933	102.4917
2120.000000	87.346642	96.8743
2140.000000	87.390427	93.7468
2180.000000	87.631409	86.4612
2200.000000	87.710930	82.6432
2240.000000	87.850891	75.3832
2270.000000	87.917397	69.2358
2300.000000	88.082642	63.2751
2330.000000	88.217781	56.5474
2360.000000	88.322235	49.8247
2400.000000	88.381607	41.5991
2430.000000	88.452530	34.1676
2470.000000	88.513168	25.5159
2500.000000	88.369064	19.2664
2540.000000	88.391396	11.7993
2580.000000	88.306236	3.3092
2620.000000	88.040146	-5.8577
2650.000000	88.102936	-11.4727
2690.000000	87.973602	-20.3986
2720.000000	87.813942	-26.2952
2760.000000	87.453148	-34.0042
2800.000000	87.341835	-42.2307
2850.000000	86.986290	-51.5890
2900.000000	86.718430	-61.3734
2950.000000	86.409317	-70.2217
3000.000000	86.033760	-79.7327
3040.000000	85.946304	-87.0346
3070.000000	85.723373	-92.8422
3110.000000	85.325104	-99.2401
3150.000000	85.129807	-106.2509
3200.000000	84.960175	-115.6522
3250.000000	85.003853	-122.9474
3300.000000	84.821564	-132.7831
3350.000000	84.529099	-140.6152
3400.000000	84.433945	-151.2836
3450.000000	84.262665	-160.2184
3500.000000	84.058083	-169.3284
3550.000000	83.975121	-178.5969
3600.000000	83.764809	171.7842
3650.000000	83.641190	160.4187
3700.000000	83.199493	151.9697
3750.000000	83.068375	142.2764
3820.000000	83.001068	131.2456
3870.000000	83.266739	123.0114
3950.000000	83.768524	106.2393
4000.000000	84.118370	92.5334
4060.000000	84.282364	78.6180
4120.000000	84.301117	62.9469
4180.000000	84.522011	46.5146
4250.000000	84.193413	27.5291
4310.000000	84.036697	12.8165
4370.000000	84.059517	-9.4181
4440.000000	84.495819	-28.2283
4500.000000	84.420357	-39.7668
4550.000000	84.181770	-54.3990
4620.000000	82.380783	-73.8062
4680.000000	83.217468	-86.9052
4750.000000	82.446838	-102.3091
4820.000000	83.468391	-116.9662
4870.000000	79.890411	-148.0406
4940.000000	77.797272	-27.4253
5000.000000	85.331848	22.1592
5080.000000	84.114281	21.9259
5150.000000	81.640152	32.8617
5220.000000	82.860611	28.9250
5300.000000	83.007851	22.5688
5380.000000	83.250229	24.4371
5450.000000	83.933922	26.3724
5520.000000	84.491959	24.2030
5600.000000	84.911713	23.2667
5700.000000	85.608643	23.6626
5800.000000	86.342140	26.1039
5900.000000	87.879883	26.1348
6000.000000	88.867661	22.5083
6080.000000	89.668556	18.8568
6150.000000	90.536232	15.7019
6220.000000	91.085709	11.0684
6300.000000	91.550514	5.3162
6400.000000	91.912560	-1.8373
6500.000000	91.993378	-8.7474
6600.000000	91.839966	-15.0576
6700.000000	91.423508	-20.4471
6800.000000	90.762054	-23.7771
6900.000000	90.103134	-24.4216
7000.000000	89.666855	-23.2657
7100.000000	89.442490	-21.4136
7200.000000	89.381371	-19.4232
7300.000000	89.449524	-17.6292
7400.000000	89.589218	-16.1233
7500.000000	89.798164	-14.9362
7620.000000	90.097816	-14.0251
7750.000000	90.415642	-13.7274
7880.000000	90.692810	-13.9758
8000.000000	90.967590	-14.5566
8120.000000	91.269348	-16.0040
8250.000000	91.481728	-18.8754
8380.000000	91.472504	-22.3649
8500.000000	91.285904	-25.5071
8620.000000	90.953896	-28.1489
8750.000000	90.455055	-30.2424
8850.000000	90.040100	-31.3629
9000.000000	89.400345	-32.1793
9120.000000	88.925842	-32.5146
9250.000000	88.451538	-32.7439
9380.000000	88.010208	-33.1162
9500.000000	87.612625	-33.9651
9620.000000	87.146996	-35.5795
9750.000000	86.447517	-38.1670
9880.000000	85.306778	-40.7656
10000.000000	83.817398	-40.9476
10150.000000	81.837830	-34.4740
10300.000000	80.735992	-22.1005
10440.000000	80.634697	-11.5751
10600.000000	81.085991	-3.4745
10750.000000	81.577896	0.5968
10900.000000	81.969391	2.4082
11060.000000	82.221840	2.4509
11200.000000	82.261215	1.6521
11380.000000	82.055367	-0.2736
11500.000000	81.705559	-1.3608
11720.000000	80.894913	-1.5776
11800.000000	80.563477	-1.3260
12060.000000	79.567726	0.8999
12200.000000	79.066345	2.5879
12410.000000	78.456360	5.8387
12500.000000	78.210167	7.5643
12650.000000	77.871048	9.8851
12800.000000	77.478836	12.6454
13150.000000	76.738823	20.1084
13200.000000	76.684479	21.4243
13400.000000	76.441895	26.4872
13600.000000	76.385384	31.9933
13800.000000	76.513374	37.3434
14000.000000	76.809456	42.4297
14300.000000	77.655518	49.4030
14500.000000	78.539474	53.0020
14750.000000	80.116913	56.0203
15000.000000	82.299629	54.8530
15250.000000	85.049438	45.2281
15500.000000	87.227974	20.5713
15750.000000	86.487541	-9.3856
16000.000000	84.249008	-26.5297
16250.000000	82.531235	-34.8344
16500.000000	81.710899	-40.9393
16750.000000	81.732765	-49.6624
17000.000000	82.205688	-66.1206
17250.000000	81.812393	-92.6592
17500.000000	79.319641	-119.7070
17750.000000	75.954117	-139.1465
18000.000000	72.840302	-154.1040
18250.000000	70.211960	-167.1221
18500.000000	67.802383	-179.0831
18750.000000	65.721718	172.3503
19000.000000	64.579674	167.5361
19250.000000	64.070930	152.0602
19500.000000	63.093178	136.0760
19750.000000	61.749031	115.9321
