* Measurement data measured by REW V5.20 Beta 60
* Source: Headset (USB-C to 3.5mm Headphone Jack Adapter), MICROPHONE (Master Volume), R, volume: 0.000
* Format: 256k Log Swept Sine, 1 sweep at -12.0 dBFS with no timing reference
* Dated: Nov 7, 2020 3:45:05 PM
* REW Settings:
*  C-weighting compensation: Off
*  Target level: 75.0 dB
* Note: ; 
* Measurement: QKZ AK6 R
* Smoothing: None
* Frequency Step: 1/48 octave
* Start Frequency: 20.000 Hz
*
* Freq(Hz)	SPL(dB)	Phase(degrees)
20.000000	96.382980	-177.8793
20.299999	96.386032	-178.2627
20.600000	96.388153	-178.6285
20.900000	96.388313	-178.9762
21.200001	96.390236	-179.3250
21.400000	96.390366	-179.5537
21.799999	96.387611	-179.9909
22.000000	96.385887	179.7963
22.400000	96.385941	179.3565
22.700001	96.384895	179.0392
23.000000	96.383301	178.7276
23.299999	96.383141	178.4082
23.600000	96.381668	178.0902
24.000000	96.375824	177.6718
24.299999	96.369881	177.3602
24.700001	96.359940	176.9627
25.000000	96.351715	176.6808
25.400000	96.343620	176.3109
25.799999	96.335831	175.9595
26.200001	96.329460	175.6041
26.500000	96.325409	175.3293
26.900000	96.317596	174.9715
27.200001	96.310905	174.7071
27.600000	96.302216	174.3641
28.000000	96.291382	174.0333
28.500000	96.278183	173.6189
29.000000	96.264488	173.2231
29.500000	96.252769	172.8297
30.000000	96.238014	172.4480
30.400000	96.225426	172.1445
30.700001	96.214615	171.9317
31.100000	96.200302	171.6611
31.500000	96.187889	171.3918
32.000000	96.172707	171.0605
32.500000	96.158195	170.7164
33.000000	96.141045	170.3826
33.500000	96.121933	170.0565
34.000000	96.101448	169.7443
34.500000	96.084892	169.4252
35.000000	96.066628	169.1134
35.500000	96.047745	168.8128
36.000000	96.029297	168.5298
36.500000	96.011948	168.2339
37.000000	95.994225	167.9303
37.500000	95.976120	167.6205
38.200001	95.945328	167.2088
38.700001	95.921890	166.9401
39.500000	95.894684	166.5588
40.000000	95.883461	166.3082
40.599998	95.867142	165.9396
41.200001	95.840286	165.5526
41.799999	95.805313	165.2214
42.500000	95.765846	164.9383
43.099998	95.743225	164.7128
43.700001	95.725601	164.4346
44.400002	95.696754	164.0620
45.000000	95.665512	163.7760
45.500000	95.642159	163.5668
46.200001	95.613129	163.2815
46.799999	95.587700	163.0238
47.500000	95.558884	162.7271
48.200001	95.529541	162.4207
48.700001	95.505531	162.1832
49.400002	95.466667	161.8949
50.000000	95.433777	161.6991
50.799999	95.402168	161.3870
51.500000	95.372131	161.1025
52.200001	95.338516	160.8289
53.000000	95.300911	160.5161
53.799999	95.261253	160.2111
54.500000	95.225288	159.9636
55.200001	95.192749	159.7220
56.000000	95.156334	159.4438
57.000000	95.108727	159.0867
58.000000	95.057884	158.7571
59.000000	95.012245	158.4557
60.000000	94.968773	158.1052
60.799999	94.921471	157.8425
61.500000	94.886009	157.6550
62.200001	94.853539	157.4337
63.000000	94.809952	157.1936
64.000000	94.765755	156.9323
65.000000	94.721649	156.5716
66.000000	94.664673	156.2726
67.000000	94.616463	155.9738
68.000000	94.556038	155.7216
69.000000	94.521294	155.5384
70.000000	94.477196	155.1646
71.000000	94.414871	154.9389
72.000000	94.374420	154.6812
73.000000	94.307350	154.3958
74.000000	94.260468	154.3240
75.000000	94.230049	154.0417
76.199997	94.166733	153.7943
77.500000	94.120537	153.5012
78.800003	94.051262	153.2041
80.000000	93.990677	153.0150
81.199997	93.946968	152.8255
82.500000	93.892967	152.4546
83.800003	93.825302	152.1345
85.000000	93.755180	151.9227
86.199997	93.691360	151.8117
87.500000	93.627235	151.7023
88.500000	93.580528	151.6074
90.000000	93.510468	151.3744
91.199997	93.446175	151.1208
92.500000	93.380997	150.8394
93.800003	93.321716	150.5094
95.000000	93.261002	150.2102
96.199997	93.204941	150.0485
97.500000	93.149162	149.8982
98.800003	93.115196	149.8147
100.000000	93.052681	149.4496
101.500000	92.966347	149.4852
103.000000	92.898735	149.2076
104.400002	92.836929	149.0771
106.000000	92.754944	148.8494
107.500000	92.690720	148.7748
109.000000	92.626556	148.6479
110.599998	92.565948	148.5381
112.000000	92.501663	148.2922
113.800003	92.413864	148.1093
115.000000	92.355247	148.0088
117.199997	92.272583	147.7988
118.000000	92.235512	147.7466
120.599998	92.115448	147.5483
122.000000	92.061012	147.5446
124.099998	91.963966	147.3533
125.000000	91.920227	147.2888
126.500000	91.856827	147.2149
128.000000	91.794868	147.1062
131.500000	91.660149	146.9304
132.000000	91.638260	146.8868
134.000000	91.547325	146.8520
136.000000	91.458656	146.8319
138.000000	91.372192	146.6364
140.000000	91.289658	146.5759
143.000000	91.171112	146.4380
145.000000	91.078926	146.4788
147.500000	90.974907	146.4111
150.000000	90.876778	146.2728
152.500000	90.790726	146.2101
155.000000	90.694725	146.3452
157.500000	90.611900	146.2581
160.000000	90.525162	146.2347
162.500000	90.433548	146.1749
165.000000	90.356728	146.3084
167.500000	90.273468	146.2342
170.000000	90.175407	146.1435
172.500000	90.075249	146.2679
175.000000	89.990570	146.3132
177.500000	89.881805	146.3470
180.000000	89.802254	146.3687
182.500000	89.712379	146.3813
185.000000	89.611115	146.4914
187.500000	89.506294	146.4943
190.000000	89.417549	146.6115
192.500000	89.334671	146.6580
195.000000	89.237198	146.7556
197.500000	89.150192	146.8532
200.000000	89.055847	146.9600
203.000000	88.959351	147.0396
206.000000	88.856094	147.1634
209.000000	88.754158	147.2409
212.000000	88.651405	147.4011
214.000000	88.594826	147.5073
218.000000	88.472679	147.6847
220.000000	88.412483	147.7591
224.000000	88.310829	147.9516
227.000000	88.227745	148.1274
230.000000	88.137848	148.2664
233.000000	88.058929	148.4456
236.000000	87.975967	148.6532
240.000000	87.869858	148.9113
243.000000	87.780075	149.0393
247.000000	87.670578	149.2777
250.000000	87.580238	149.5156
254.000000	87.477951	149.7614
258.000000	87.358032	149.9789
262.000000	87.255455	150.2789
265.000000	87.173012	150.5247
269.000000	87.064087	150.8219
272.000000	86.982086	151.0211
276.000000	86.895157	151.3160
280.000000	86.788887	151.6147
285.000000	86.665276	151.9930
290.000000	86.547279	152.4055
295.000000	86.420914	152.8380
300.000000	86.331490	153.3741
304.000000	86.211754	153.5998
307.000000	86.132866	153.7809
311.000000	86.033447	154.0866
315.000000	85.960129	154.4897
320.000000	85.842293	154.9648
325.000000	85.733704	155.4006
330.000000	85.627190	155.8397
335.000000	85.504089	156.2034
340.000000	85.409492	156.7200
345.000000	85.307755	157.2154
350.000000	85.202881	157.7335
355.000000	85.094101	158.1774
360.000000	84.990341	158.6357
365.000000	84.891388	159.1931
370.000000	84.791008	159.6234
375.000000	84.698746	160.0451
382.000000	84.572037	160.7814
387.000000	84.483002	161.3116
395.000000	84.325989	162.0825
400.000000	84.252350	162.5793
406.000000	84.147385	163.2226
412.000000	84.042572	163.8667
418.000000	83.946388	164.4611
425.000000	83.836060	165.2982
431.000000	83.721710	165.8823
437.000000	83.640541	166.4981
444.000000	83.533463	167.2735
450.000000	83.453125	167.9987
455.000000	83.371292	168.4470
462.000000	83.271378	169.1209
468.000000	83.179184	169.7190
475.000000	83.080688	170.4940
482.000000	82.960167	171.1721
487.000000	82.890030	171.7088
494.000000	82.796631	172.4543
500.000000	82.734276	173.1729
508.000000	82.612228	174.1237
515.000000	82.510391	175.0430
522.000000	82.416519	175.8087
530.000000	82.280830	176.8987
538.000000	82.208389	178.4207
545.000000	82.213516	179.5585
552.000000	82.228081	-179.9964
560.000000	82.152840	-179.6399
570.000000	82.014252	-178.7185
580.000000	81.876656	-177.6360
590.000000	81.753067	-176.5383
600.000000	81.651207	-175.4196
608.000000	81.553398	-174.4894
615.000000	81.471573	-173.6445
622.000000	81.403152	-172.6975
630.000000	81.336189	-171.6972
640.000000	81.231438	-170.5709
650.000000	81.131241	-169.3816
660.000000	81.055573	-168.2248
670.000000	80.961990	-166.7494
680.000000	80.880028	-165.4495
690.000000	80.795364	-164.2392
700.000000	80.735809	-162.9827
710.000000	80.673714	-161.6865
720.000000	80.585785	-160.2594
730.000000	80.523514	-158.8389
740.000000	80.450981	-157.5903
750.000000	80.380836	-156.2593
762.000000	80.336708	-154.5112
775.000000	80.245193	-152.7553
788.000000	80.185364	-150.8929
800.000000	80.122429	-149.3256
812.000000	80.072433	-147.5227
825.000000	80.029007	-145.5527
838.000000	79.993690	-143.6944
850.000000	79.965790	-141.9033
862.000000	79.952454	-140.1247
875.000000	79.950111	-138.1898
885.000000	79.939751	-136.7596
900.000000	79.947960	-134.5582
912.000000	79.977470	-132.8078
925.000000	79.999977	-130.7106
938.000000	80.053040	-128.9788
950.000000	80.094917	-127.3745
962.000000	80.160927	-125.7327
975.000000	80.235611	-124.5790
988.000000	80.349098	-122.1190
1000.000000	80.489853	-120.4938
1015.000000	80.515732	-118.8467
1030.000000	80.622528	-117.1011
1044.000000	80.734261	-115.5242
1060.000000	80.869301	-113.8929
1075.000000	81.004692	-112.5792
1090.000000	81.140274	-111.0927
1106.000000	81.279175	-109.7759
1120.000000	81.410210	-108.5649
1138.000000	81.573639	-107.2275
1150.000000	81.684425	-106.3376
1172.000000	81.879822	-104.9302
1180.000000	81.943634	-104.4068
1206.000000	82.147102	-102.8328
1220.000000	82.248123	-101.9378
1241.000000	82.403603	-100.8865
1250.000000	82.474884	-100.3599
1265.000000	82.577454	-99.5931
1280.000000	82.682892	-98.8127
1315.000000	82.898964	-97.0129
1320.000000	82.930298	-96.7529
1340.000000	83.049255	-95.7979
1360.000000	83.164192	-94.8129
1380.000000	83.274414	-93.7888
1400.000000	83.378380	-92.8280
1430.000000	83.535217	-91.3266
1450.000000	83.629333	-90.3092
1475.000000	83.762032	-89.0813
1500.000000	83.892456	-87.8762
1525.000000	84.009186	-86.5717
1550.000000	84.146805	-85.3716
1575.000000	84.274948	-84.1162
1600.000000	84.415047	-82.8686
1625.000000	84.552818	-81.6331
1650.000000	84.694336	-80.4067
1675.000000	84.831940	-79.2091
1700.000000	84.976639	-78.0409
1725.000000	85.123428	-76.8600
1750.000000	85.270821	-75.7440
1775.000000	85.427422	-74.6312
1800.000000	85.582916	-73.5645
1825.000000	85.740372	-72.5112
1850.000000	85.907211	-71.5346
1875.000000	86.063637	-70.5812
1900.000000	86.227348	-69.6688
1925.000000	86.392563	-68.8108
1950.000000	86.556870	-68.0478
1975.000000	86.705200	-67.3003
2000.000000	86.800751	-66.8604
2030.000000	87.064888	-65.7352
2060.000000	87.270538	-64.9601
2090.000000	87.461128	-64.2648
2120.000000	87.649033	-63.7297
2140.000000	87.767014	-63.3962
2180.000000	88.001999	-62.7966
2200.000000	88.115921	-62.5462
2240.000000	88.336533	-62.3386
2270.000000	88.476364	-62.4744
2300.000000	88.603745	-62.8475
2330.000000	88.729988	-63.3012
2360.000000	88.837456	-63.7888
2400.000000	88.959778	-64.2324
2430.000000	89.048187	-64.3719
2470.000000	89.132408	-64.3783
2500.000000	89.176567	-64.4092
2540.000000	89.214043	-64.4395
2580.000000	89.226128	-64.4435
2620.000000	89.226692	-64.3507
2650.000000	89.215622	-64.2611
2690.000000	89.186279	-64.0528
2720.000000	89.160652	-63.8419
2760.000000	89.099144	-63.4677
2800.000000	89.034042	-63.0176
2850.000000	88.941765	-62.2906
2900.000000	88.844162	-61.4015
2950.000000	88.751968	-60.3636
3000.000000	88.656853	-58.8658
3040.000000	88.595650	-58.1929
3070.000000	88.551262	-57.4169
3110.000000	88.486069	-56.3324
3150.000000	88.434013	-55.1340
3200.000000	88.384743	-53.6182
3250.000000	88.345863	-52.0270
3300.000000	88.325081	-50.3870
3350.000000	88.312515	-48.7091
3400.000000	88.320358	-47.0264
3450.000000	88.359131	-45.3093
3500.000000	88.421936	-43.6277
3550.000000	88.502930	-41.9092
3600.000000	88.603851	-40.2357
3650.000000	88.719406	-38.6218
3700.000000	88.853554	-37.0373
3750.000000	89.006096	-35.4928
3820.000000	89.245216	-33.4843
3870.000000	89.431458	-32.2200
3950.000000	89.758919	-30.7374
4000.000000	89.915215	-30.7434
4060.000000	89.690399	-29.1441
4120.000000	90.142792	-25.4778
4180.000000	90.597664	-24.3403
4250.000000	91.097076	-23.4841
4310.000000	91.540680	-23.1630
4370.000000	92.013008	-23.4059
4440.000000	92.577461	-24.5740
4500.000000	93.022896	-26.3479
4550.000000	93.355820	-28.3390
4620.000000	93.722153	-31.8669
4680.000000	93.929253	-35.4515
4750.000000	94.012756	-40.0687
4820.000000	93.907631	-44.8265
4870.000000	93.722687	-48.0921
4940.000000	93.320770	-52.2924
5000.000000	92.862579	-55.3812
5080.000000	92.168808	-58.1691
5150.000000	91.502098	-59.7798
5220.000000	90.826942	-60.5991
5300.000000	90.061600	-60.7585
5380.000000	89.331001	-60.1532
5450.000000	88.720329	-59.1398
5520.000000	88.089966	-57.7433
5600.000000	87.408859	-55.7003
5700.000000	86.619682	-52.6332
5800.000000	85.901665	-48.9720
5900.000000	85.253754	-44.7658
6000.000000	84.684044	-40.1490
6080.000000	84.327713	-36.1094
6150.000000	84.086739	-32.4681
6220.000000	83.902260	-28.9753
6300.000000	83.743660	-25.0154
6400.000000	83.616280	-19.8595
6500.000000	83.572067	-14.7561
6600.000000	83.621590	-9.6226
6700.000000	83.723618	-4.9039
6800.000000	83.970406	-0.1189
6900.000000	84.281830	4.2524
7000.000000	84.775177	8.2664
7100.000000	85.328918	12.0360
7200.000000	86.012291	15.1245
7300.000000	86.811218	17.3897
7400.000000	87.725128	18.5000
7500.000000	88.753288	18.2221
7620.000000	90.044876	15.0996
7750.000000	91.275375	6.8437
7880.000000	91.738815	-6.0831
8000.000000	91.158241	-18.2170
8120.000000	89.897987	-26.9252
8250.000000	88.246635	-31.5755
8380.000000	86.665627	-32.4851
8500.000000	85.372818	-30.9748
8620.000000	84.259560	-28.3363
8750.000000	83.231003	-24.1921
8850.000000	82.531876	-20.4398
9000.000000	81.771484	-14.2462
9120.000000	81.375504	-9.2521
9250.000000	81.149353	-4.3864
9380.000000	81.041260	0.2537
9500.000000	81.073135	4.0821
9620.000000	81.272644	7.4478
9750.000000	81.693657	10.4541
9880.000000	82.365486	11.7487
10000.000000	83.193810	10.4561
10150.000000	84.331688	3.6913
10300.000000	84.932907	-11.0292
10440.000000	84.010101	-28.3986
10600.000000	81.407127	-42.1058
10750.000000	78.619385	-46.9056
10900.000000	76.054222	-46.6026
11060.000000	73.579262	-43.2692
11200.000000	71.613220	-38.5174
11380.000000	69.488991	-30.4499
11500.000000	68.173302	-24.4907
11720.000000	66.208801	-10.6036
11800.000000	65.653877	-8.4732
12060.000000	63.485428	5.7836
12200.000000	62.573826	14.9295
12410.000000	61.519211	30.9251
12500.000000	60.838432	38.5242
12650.000000	60.646450	51.4954
12800.000000	60.892036	63.8434
13150.000000	62.526016	82.3194
13200.000000	62.692085	84.3567
13400.000000	63.123806	89.2343
13600.000000	63.362221	94.4601
13800.000000	63.318134	98.8257
14000.000000	63.273750	106.2112
14300.000000	63.539452	119.1626
14500.000000	64.227737	129.5155
14750.000000	65.502235	140.1055
15000.000000	67.537720	148.4466
15250.000000	69.968109	149.6772
15500.000000	72.404106	144.7350
15750.000000	74.406532	133.0675
16000.000000	75.646454	115.8256
16250.000000	75.577766	94.5555
16500.000000	74.182716	77.5325
16750.000000	72.264183	66.6797
17000.000000	70.406952	61.2006
17250.000000	69.028374	59.0992
17500.000000	68.141251	56.5503
17750.000000	67.619675	50.5263
18000.000000	66.702477	37.5790
18250.000000	64.988976	23.7331
18500.000000	63.228012	17.8414
18750.000000	62.151329	19.0121
19000.000000	62.467728	20.4937
19250.000000	64.473824	13.3268
19500.000000	66.237366	-8.4096
19750.000000	66.543655	-48.0674
