* Measurement data measured by REW V5.20 Beta 60
* Source: Headset (USB-C to 3.5mm Headphone Jack Adapter), MICROPHONE (Master Volume), R, volume: 0.258
* Format: 256k Log Swept Sine, 1 sweep at -12.0 dBFS with no timing reference
* Dated: Mar 18, 2021 4:48:56 PM
* REW Settings:
*  C-weighting compensation: Off
*  Target level: 75.0 dB
* Note: ; 
* Measurement: Senfer MT300 L
* Smoothing: None
* Frequency Step: 1/48 octave
* Start Frequency: 20.000 Hz
*
* Freq(Hz)	SPL(dB)	Phase(degrees)
20.000000	93.592346	-169.4254
20.299999	93.599945	-169.8285
20.600000	93.617027	-170.1521
20.900000	93.648155	-170.4437
21.200001	93.697090	-170.7970
21.400000	93.732697	-171.0979
21.799999	93.796768	-171.8548
22.000000	93.819000	-172.2996
22.400000	93.835968	-173.2605
22.700001	93.820145	-173.9150
23.000000	93.788345	-174.4280
23.299999	93.757088	-174.7867
23.600000	93.736496	-175.0155
24.000000	93.736816	-175.2393
24.299999	93.757187	-175.4708
24.700001	93.792999	-175.9525
25.000000	93.810028	-176.4302
25.400000	93.809113	-177.1278
25.799999	93.782738	-177.7169
26.200001	93.754730	-178.1385
26.500000	93.746429	-178.3932
26.900000	93.753754	-178.7492
27.200001	93.766396	-179.1028
27.600000	93.777039	-179.7019
28.000000	93.763741	179.6453
28.500000	93.719978	178.9248
29.000000	93.672363	178.4153
29.500000	93.642464	178.0112
30.000000	93.622398	177.6231
30.400000	93.610451	177.3210
30.700001	93.604713	177.1234
31.100000	93.608162	176.8676
31.500000	93.626076	176.5472
32.000000	93.652725	175.9777
32.500000	93.660378	175.2315
33.000000	93.633743	174.4945
33.500000	93.585266	173.9089
34.000000	93.538155	173.5016
34.500000	93.510223	173.1603
35.000000	93.491882	172.8133
35.500000	93.474434	172.4539
36.000000	93.456390	172.1329
36.500000	93.444901	171.8394
37.000000	93.444313	171.5316
37.500000	93.450546	171.1458
38.200001	93.445557	170.4930
38.700001	93.427208	170.0155
39.500000	93.387833	169.3144
40.000000	93.354507	168.9041
40.599998	93.301735	168.4789
41.200001	93.254410	168.2019
41.799999	93.231247	167.9446
42.500000	93.210480	167.4663
43.099998	93.170387	167.0044
43.700001	93.124641	166.6719
44.400002	93.094444	166.3326
45.000000	93.075851	165.9013
45.500000	93.044212	165.4934
46.200001	92.979111	165.0981
46.799999	92.939903	164.9456
47.500000	92.930771	164.6902
48.200001	92.915695	164.2037
48.700001	92.883415	163.8239
49.400002	92.823990	163.4484
50.000000	92.778732	163.2186
50.799999	92.727173	162.8446
51.500000	92.675468	162.5730
52.200001	92.632324	162.3456
53.000000	92.589828	161.9903
53.799999	92.533127	161.6216
54.500000	92.484062	161.3699
55.200001	92.444717	161.0937
56.000000	92.392563	160.7367
57.000000	92.321053	160.3867
58.000000	92.265907	160.0440
59.000000	92.203697	159.6297
60.000000	92.141022	159.2838
60.799999	92.090309	158.9820
61.500000	92.043365	158.7301
62.200001	91.998604	158.5135
63.000000	91.953072	158.2618
64.000000	91.890106	157.9120
65.000000	91.822510	157.6562
66.000000	91.763924	157.4153
67.000000	91.698120	157.1337
68.000000	91.631348	156.9412
69.000000	91.578278	156.6608
70.000000	91.501877	156.3766
71.000000	91.442062	156.1665
72.000000	91.372437	155.8909
73.000000	91.324600	155.7761
74.000000	91.282539	155.3181
75.000000	91.176849	155.1555
76.199997	91.147743	155.1726
77.500000	91.057129	154.7580
78.800003	90.986702	154.7241
80.000000	90.913940	154.4824
81.199997	90.844490	154.3127
82.500000	90.757584	154.0701
83.800003	90.686325	153.9720
85.000000	90.635345	153.7413
86.199997	90.558441	153.5198
87.500000	90.482933	153.4123
88.500000	90.427444	153.3166
90.000000	90.339989	153.1439
91.199997	90.265472	153.0432
92.500000	90.189667	152.9029
93.800003	90.112022	152.7425
95.000000	90.033447	152.6725
96.199997	89.984634	152.6102
97.500000	89.907562	152.3684
98.800003	89.822586	152.3764
100.000000	89.767967	152.3656
101.500000	89.694481	152.2492
103.000000	89.611748	152.1203
104.400002	89.530273	152.0660
106.000000	89.444778	151.9883
107.500000	89.366089	151.9412
109.000000	89.293739	151.9631
110.599998	89.224319	151.8017
112.000000	89.144234	151.8183
113.800003	89.059677	151.8182
115.000000	89.006523	151.8249
117.199997	88.895233	151.7759
118.000000	88.855064	151.7730
120.599998	88.729439	151.7703
122.000000	88.662323	151.8265
124.099998	88.564552	151.8315
125.000000	88.524513	151.8688
126.500000	88.446594	151.9486
128.000000	88.392929	151.9415
131.500000	88.218185	151.9104
132.000000	88.191261	151.9460
134.000000	88.109238	151.9628
136.000000	88.013817	152.1986
138.000000	87.935272	152.2352
140.000000	87.842705	152.3510
143.000000	87.711388	152.4450
145.000000	87.627533	152.4992
147.500000	87.516876	152.6839
150.000000	87.420296	152.8810
152.500000	87.333038	153.1193
155.000000	87.240509	153.1958
157.500000	87.144775	153.4686
160.000000	87.065353	153.6667
162.500000	86.967751	153.7991
165.000000	86.882629	154.0322
167.500000	86.816750	154.0870
170.000000	86.712250	154.3078
172.500000	86.622543	154.6813
175.000000	86.545212	154.8691
177.500000	86.437248	154.9694
180.000000	86.349403	155.3716
182.500000	86.249474	155.6601
185.000000	86.163551	155.7332
187.500000	86.084122	155.9619
190.000000	85.978447	156.2108
192.500000	85.895248	156.6427
195.000000	85.819672	156.8741
197.500000	85.734337	157.1577
200.000000	85.655655	157.4965
203.000000	85.567413	157.7937
206.000000	85.470612	158.0182
209.000000	85.370712	158.2796
212.000000	85.280853	158.7202
214.000000	85.186478	159.1944
218.000000	85.023422	159.7933
220.000000	85.092552	159.1865
224.000000	84.975044	160.4210
227.000000	84.888687	160.5322
230.000000	84.810165	160.8954
233.000000	84.752449	161.3243
236.000000	84.658920	161.8645
240.000000	84.581276	162.1046
243.000000	84.539642	162.6789
247.000000	84.408241	163.6099
250.000000	84.312042	163.7678
254.000000	84.251892	163.9457
258.000000	84.154572	164.6495
262.000000	84.072823	165.2031
265.000000	83.999573	165.6157
269.000000	83.898804	166.2236
272.000000	83.835670	166.5020
276.000000	83.744392	167.1502
280.000000	83.674217	167.6151
285.000000	83.567902	168.2531
290.000000	83.484886	168.9551
295.000000	83.389130	169.7827
300.000000	83.279427	170.3921
304.000000	83.215767	171.0687
307.000000	83.155823	171.3771
311.000000	83.116081	172.0067
315.000000	83.036407	172.6135
320.000000	82.961662	173.1679
325.000000	82.880157	173.9620
330.000000	82.781120	174.6995
335.000000	82.693497	175.6271
340.000000	82.624756	176.2287
345.000000	82.568817	176.9777
350.000000	82.477203	177.6467
355.000000	82.410660	178.2324
360.000000	82.314499	179.2379
365.000000	82.272713	179.8476
370.000000	82.192947	-179.2018
375.000000	82.138130	-178.4775
382.000000	82.046410	-177.6644
387.000000	82.005730	-177.0215
395.000000	81.947067	-176.0061
400.000000	81.859169	-174.8015
406.000000	81.780212	-174.0748
412.000000	81.714958	-173.3063
418.000000	81.652161	-172.2523
425.000000	81.584457	-171.2775
431.000000	81.567139	-170.4693
437.000000	81.489120	-169.4627
444.000000	81.385574	-168.3797
450.000000	81.382660	-167.6066
455.000000	81.346848	-166.9962
462.000000	81.284859	-166.0456
468.000000	81.249878	-165.2093
475.000000	81.189011	-164.2067
482.000000	81.140533	-163.3300
487.000000	81.099487	-162.6957
494.000000	81.075233	-161.6749
500.000000	81.031487	-160.8428
508.000000	80.986061	-159.6893
515.000000	80.927055	-158.6490
522.000000	80.907631	-157.5560
530.000000	80.833885	-156.4497
538.000000	80.805527	-155.3957
545.000000	80.760620	-154.3397
552.000000	80.741905	-153.3695
560.000000	80.697693	-152.1796
570.000000	80.657433	-150.7595
580.000000	80.600121	-149.4481
590.000000	80.573235	-147.9624
600.000000	80.542000	-146.5514
608.000000	80.515739	-145.2926
615.000000	80.490509	-144.3464
622.000000	80.477341	-143.3623
630.000000	80.464294	-142.2001
640.000000	80.439003	-140.9049
650.000000	80.441437	-139.4589
660.000000	80.422394	-137.7605
670.000000	80.423401	-136.6194
680.000000	80.406410	-135.2296
690.000000	80.411705	-133.8636
700.000000	80.395477	-132.4813
710.000000	80.411316	-131.0572
720.000000	80.405380	-129.6699
730.000000	80.405251	-128.2724
740.000000	80.416901	-126.9344
750.000000	80.419670	-125.4789
762.000000	80.451385	-123.8362
775.000000	80.460449	-122.1442
788.000000	80.475624	-120.3719
800.000000	80.517868	-118.7076
812.000000	80.532623	-117.1126
825.000000	80.572098	-115.3444
838.000000	80.617592	-113.6967
850.000000	80.675186	-112.0680
862.000000	80.722443	-110.4556
875.000000	80.765800	-108.7511
885.000000	80.828674	-107.4299
900.000000	80.887100	-105.5887
912.000000	80.987732	-104.1124
925.000000	81.068436	-102.4608
938.000000	81.134048	-100.8890
950.000000	81.221367	-99.4220
962.000000	81.315033	-98.0148
975.000000	81.400772	-96.4806
988.000000	81.525162	-94.9886
1000.000000	81.710899	-93.5536
1015.000000	81.729385	-92.1373
1030.000000	81.841110	-90.6845
1044.000000	81.960762	-89.3753
1060.000000	82.091728	-87.8183
1075.000000	82.212875	-86.5587
1090.000000	82.350502	-85.2598
1106.000000	82.477699	-83.9492
1120.000000	82.591408	-82.7412
1138.000000	82.724838	-81.1614
1150.000000	82.817802	-80.1334
1172.000000	82.998016	-78.1724
1180.000000	83.069771	-77.5160
1206.000000	83.313301	-75.2604
1220.000000	83.464615	-74.0793
1241.000000	83.691650	-72.4704
1250.000000	83.789551	-71.7642
1265.000000	83.956284	-70.6281
1280.000000	84.129959	-69.5462
1315.000000	84.546967	-67.2267
1320.000000	84.615982	-66.9369
1340.000000	84.873528	-65.8671
1360.000000	85.105705	-64.9248
1380.000000	85.336716	-63.9984
1400.000000	85.557823	-62.9658
1430.000000	85.963120	-61.2335
1450.000000	86.314682	-60.4580
1475.000000	86.725273	-60.4151
1500.000000	87.022263	-60.8184
1525.000000	87.236511	-61.1367
1550.000000	87.390701	-61.2946
1575.000000	87.538635	-61.3783
1600.000000	87.667526	-61.2754
1625.000000	87.791321	-61.2071
1650.000000	87.919266	-61.1111
1675.000000	88.033127	-60.9758
1700.000000	88.140587	-60.8651
1725.000000	88.241959	-60.8017
1750.000000	88.333939	-60.7427
1775.000000	88.416847	-60.6466
1800.000000	88.485504	-60.5944
1825.000000	88.538528	-60.5489
1850.000000	88.582771	-60.4841
1875.000000	88.623711	-60.4124
1900.000000	88.645134	-60.3171
1925.000000	88.660507	-60.2004
1950.000000	88.659821	-60.0324
1975.000000	88.636864	-59.9214
2000.000000	88.555748	-59.9475
2030.000000	88.597290	-59.3075
2060.000000	88.572853	-58.8497
2090.000000	88.525398	-58.3693
2120.000000	88.470398	-57.8023
2140.000000	88.435493	-57.3844
2180.000000	88.352684	-56.3983
2200.000000	88.307518	-55.8697
2240.000000	88.236618	-54.8602
2270.000000	88.171707	-54.2953
2300.000000	88.104187	-53.7850
2330.000000	88.050797	-53.2499
2360.000000	87.996529	-52.6168
2400.000000	87.939812	-51.4855
2430.000000	87.914902	-50.3868
2470.000000	87.891754	-48.6602
2500.000000	87.888443	-47.4109
2540.000000	87.878792	-45.7299
2580.000000	87.886993	-44.0858
2620.000000	87.908424	-42.3253
2650.000000	87.933113	-41.0602
2690.000000	87.989182	-39.3218
2720.000000	88.044998	-38.0242
2760.000000	88.124001	-36.2612
2800.000000	88.230095	-34.6458
2850.000000	88.397209	-32.7234
2900.000000	88.607330	-31.0644
2950.000000	88.840302	-29.5980
3000.000000	89.096344	-28.0174
3040.000000	89.324570	-27.5226
3070.000000	89.506012	-27.0691
3110.000000	89.750885	-26.5939
3150.000000	90.015610	-26.3594
3200.000000	90.358589	-26.4830
3250.000000	90.699135	-27.0081
3300.000000	91.030678	-28.0425
3350.000000	91.340179	-29.6004
3400.000000	91.598755	-31.5819
3450.000000	91.802895	-33.9331
3500.000000	91.948013	-36.5821
3550.000000	91.991486	-39.3459
3600.000000	91.945366	-42.0218
3650.000000	91.822914	-44.4803
3700.000000	91.629013	-46.5352
3750.000000	91.398918	-48.0888
3820.000000	91.063622	-49.4910
3870.000000	90.832626	-49.9208
3950.000000	90.529076	-50.0301
4000.000000	90.363213	-50.0060
4060.000000	90.314995	-49.3749
4120.000000	90.306747	-49.0229
4180.000000	90.352585	-48.8199
4250.000000	90.498009	-48.7012
4310.000000	90.657150	-49.0267
4370.000000	90.870605	-49.8005
4440.000000	91.127945	-51.3321
4500.000000	91.326950	-53.2626
4550.000000	91.456505	-55.2280
4620.000000	91.537781	-58.4088
4680.000000	91.508347	-61.2238
4750.000000	91.346191	-64.3219
4820.000000	91.080185	-66.9483
4870.000000	90.849548	-68.4575
4940.000000	90.493889	-69.9831
5000.000000	90.163406	-70.8065
5080.000000	89.753677	-70.8579
5150.000000	89.420036	-70.4807
5220.000000	89.119247	-69.6512
5300.000000	88.851807	-68.2743
5380.000000	88.625671	-66.5100
5450.000000	88.490509	-64.6406
5520.000000	88.381363	-62.5561
5600.000000	88.311172	-60.0516
5700.000000	88.323730	-56.7712
5800.000000	88.440643	-53.3646
5900.000000	88.638916	-49.8543
6000.000000	88.918640	-46.4198
6080.000000	89.261284	-43.5737
6150.000000	89.613800	-41.3205
6220.000000	90.014107	-39.1327
6300.000000	90.535233	-37.0012
6400.000000	91.257797	-34.8592
6500.000000	92.078476	-33.4412
6600.000000	92.969330	-32.9944
6700.000000	93.900040	-33.8898
6800.000000	94.825012	-36.2013
6900.000000	95.659988	-40.3517
7000.000000	96.303322	-46.1323
7100.000000	96.594376	-52.8751
7200.000000	96.524216	-59.5312
7300.000000	96.140739	-65.2808
7400.000000	95.528816	-69.6410
7500.000000	94.782906	-72.4173
7620.000000	93.837746	-73.6864
7750.000000	92.831558	-73.2027
7880.000000	91.877647	-71.1990
8000.000000	91.077408	-68.5015
8120.000000	90.344521	-64.9719
8250.000000	89.650909	-60.6430
8380.000000	89.037506	-55.9137
8500.000000	88.531227	-51.2001
8620.000000	88.099869	-46.2465
8750.000000	87.656876	-40.7420
8850.000000	87.361946	-36.3829
9000.000000	86.975838	-29.6887
9120.000000	86.745667	-24.3869
9250.000000	86.546982	-18.6986
9380.000000	86.413857	-12.9851
9500.000000	86.341568	-7.8317
9620.000000	86.325737	-2.7873
9750.000000	86.367302	2.4275
9880.000000	86.465454	7.3683
10000.000000	86.605942	11.6819
10150.000000	86.857361	16.3829
10300.000000	87.176636	20.3725
10440.000000	87.487801	23.1518
10600.000000	87.844688	25.2678
10750.000000	88.108017	25.9320
10900.000000	88.222397	25.6647
11060.000000	88.105591	24.6683
11200.000000	87.788559	23.7962
11380.000000	87.114189	23.5816
11500.000000	86.518890	24.6313
11720.000000	85.546013	29.7681
11800.000000	85.330887	32.0579
12060.000000	84.798790	38.6284
12200.000000	84.587074	42.1168
12410.000000	84.457787	47.0737
12500.000000	84.450729	49.0969
12650.000000	84.487022	52.3661
12800.000000	84.576065	55.3293
13150.000000	85.109612	59.8023
13200.000000	85.212593	60.0783
13400.000000	85.633896	59.9565
13600.000000	86.059456	57.3470
13800.000000	86.292778	51.9007
14000.000000	86.086159	43.8613
14300.000000	84.557503	30.9316
14500.000000	82.794678	25.2429
14750.000000	80.336060	23.5562
15000.000000	78.212990	25.8664
15250.000000	76.428841	28.2972
15500.000000	74.367744	31.8724
15750.000000	72.802483	38.7567
16000.000000	71.917397	43.3581
16250.000000	70.888687	44.4292
16500.000000	69.356361	42.5576
16750.000000	67.131721	44.2043
17000.000000	65.168106	51.3959
17250.000000	63.797928	62.9273
17500.000000	63.097752	72.0766
17750.000000	62.755047	76.9507
18000.000000	62.900772	80.2043
18250.000000	62.904011	78.6079
18500.000000	63.936249	75.7827
18750.000000	64.891357	70.5396
19000.000000	65.905502	64.8040
19250.000000	67.224617	54.1269
19500.000000	68.071831	39.3802
19750.000000	69.175140	19.3657
