* Measurement data measured by REW V5.20 Beta 60
* Source: Headset (USB-C to 3.5mm Headphone Jack Adapter), MICROPHONE (Master Volume), R, volume: 0.258
* Format: 256k Log Swept Sine, 1 sweep at -12.0 dBFS with no timing reference
* Dated: May 16, 2021 2:23:30 PM
* REW Settings:
*  C-weighting compensation: Off
*  Target level: 75.0 dB
* Note: ; 
* Measurement: Sennheiser IE 900 L
* Smoothing: None
* Frequency Step: 1/48 octave
* Start Frequency: 20.000 Hz
*
* Freq(Hz)	SPL(dB)	Phase(degrees)
20.000000	93.366783	176.6442
20.299999	93.378510	176.0375
20.600000	93.380524	175.3120
20.900000	93.357056	174.5198
21.200001	93.303146	173.7608
21.400000	93.251610	173.3608
21.799999	93.134529	172.9157
22.000000	93.085411	172.8721
22.400000	93.042686	172.9985
22.700001	93.064186	173.0871
23.000000	93.119164	172.9517
23.299999	93.179916	172.5071
23.600000	93.217575	171.8191
24.000000	93.202728	170.7525
24.299999	93.145302	170.0728
24.700001	93.039040	169.5643
25.000000	92.972198	169.4957
25.400000	92.939987	169.6144
25.799999	92.972641	169.6319
26.200001	93.034149	169.2816
26.500000	93.070305	168.7845
26.900000	93.080910	167.9828
27.200001	93.062256	167.4086
27.600000	93.019463	166.7942
28.000000	92.977234	166.3448
28.500000	92.943596	165.8297
29.000000	92.913292	165.2393
29.500000	92.865883	164.6155
30.000000	92.798126	164.1250
30.400000	92.745171	163.8587
30.700001	92.711533	163.7214
31.100000	92.678772	163.5602
31.500000	92.659012	163.3637
32.000000	92.642517	163.0189
32.500000	92.621307	162.5122
33.000000	92.571205	161.9208
33.500000	92.484032	161.4283
34.000000	92.386421	161.2444
34.500000	92.332855	161.2827
35.000000	92.333496	161.2055
35.500000	92.343643	160.7358
36.000000	92.305626	160.0340
36.500000	92.215286	159.4675
37.000000	92.122078	159.2325
37.500000	92.065819	159.1211
38.200001	92.010529	158.7490
38.700001	91.951126	158.4308
39.500000	91.871002	158.1750
40.000000	91.847366	157.9415
40.599998	91.801926	157.4554
41.200001	91.726967	157.1064
41.799999	91.680145	156.9770
42.500000	91.674667	156.5845
43.099998	91.639656	155.9393
43.700001	91.560936	155.4525
44.400002	91.481720	155.2260
45.000000	91.442474	155.0197
45.500000	91.403450	154.7862
46.200001	91.331940	154.6033
46.799999	91.285873	154.5908
47.500000	91.255692	154.4763
48.200001	91.211792	154.2009
48.700001	91.164673	153.9863
49.400002	91.088272	153.7565
50.000000	91.019867	153.5909
50.799999	90.928963	153.3145
51.500000	90.842445	153.1427
52.200001	90.767616	153.0631
53.000000	90.713486	152.9167
53.799999	90.670105	152.5677
54.500000	90.613998	152.1301
55.200001	90.527695	151.7290
56.000000	90.412468	151.6031
57.000000	90.335907	151.7167
58.000000	90.281906	151.4190
59.000000	90.181358	151.1785
60.000000	90.105385	151.0412
60.799999	90.036713	150.8480
61.500000	89.979141	150.7133
62.200001	89.922363	150.5220
63.000000	89.838150	150.3568
64.000000	89.754730	150.3669
65.000000	89.687065	150.1687
66.000000	89.587204	150.1017
67.000000	89.530037	150.0762
68.000000	89.452820	149.7982
69.000000	89.368210	149.6667
70.000000	89.284508	149.4650
71.000000	89.191895	149.4392
72.000000	89.138412	149.4225
73.000000	89.073891	149.2515
74.000000	89.000793	149.2042
75.000000	88.937515	149.2018
76.199997	88.871269	149.1753
77.500000	88.784454	149.1074
78.800003	88.698738	149.0857
80.000000	88.605957	149.0844
81.199997	88.528664	149.1406
82.500000	88.444283	149.0641
83.800003	88.348053	149.0127
85.000000	88.279411	149.0445
86.199997	88.211594	148.9342
87.500000	88.126472	148.9263
88.500000	88.064514	148.9735
90.000000	87.977791	149.0678
91.199997	87.900772	149.0864
92.500000	87.804443	149.1244
93.800003	87.721954	149.1860
95.000000	87.646210	149.1825
96.199997	87.581345	149.1860
97.500000	87.506439	149.2787
98.800003	87.467728	149.3361
100.000000	87.392204	149.2490
101.500000	87.291130	149.4207
103.000000	87.202141	149.5973
104.400002	87.128357	149.5845
106.000000	87.027252	149.7115
107.500000	86.966087	149.7878
109.000000	86.880859	149.9054
110.599998	86.825043	150.2001
112.000000	86.754303	150.1711
113.800003	86.666527	150.3876
115.000000	86.602409	150.4098
117.199997	86.491051	150.6537
118.000000	86.462296	150.7699
120.599998	86.344696	151.0416
122.000000	86.272408	151.1945
124.099998	86.188820	151.2933
125.000000	86.146851	151.3629
126.500000	86.077812	151.5108
128.000000	86.020599	151.6844
131.500000	85.840454	152.3609
132.000000	85.837883	152.5097
134.000000	85.767479	152.7135
136.000000	85.696045	152.8017
138.000000	85.609787	152.9109
140.000000	85.545830	153.1496
143.000000	85.441711	153.3743
145.000000	85.359344	153.6688
147.500000	85.270317	154.1522
150.000000	85.171753	154.4148
152.500000	85.098999	154.6352
155.000000	85.013115	154.9457
157.500000	84.955032	155.2224
160.000000	84.891457	155.8529
162.500000	84.788574	155.9349
165.000000	84.814056	156.5312
167.500000	84.682236	156.6212
170.000000	84.596443	156.9673
172.500000	84.561188	157.2792
175.000000	84.389488	157.3444
177.500000	84.368271	158.1573
180.000000	84.317505	158.4144
182.500000	84.239304	158.6110
185.000000	84.168274	159.0314
187.500000	84.081657	159.3517
190.000000	84.026627	159.6693
192.500000	83.969292	160.0251
195.000000	83.896759	160.2567
197.500000	83.832817	160.7957
200.000000	83.767509	161.0349
203.000000	83.687691	161.4077
206.000000	83.631851	161.9604
209.000000	83.580505	162.2448
212.000000	83.497498	162.7044
214.000000	83.461815	163.0594
218.000000	83.374268	163.5609
220.000000	83.342148	163.9230
224.000000	83.283035	164.4120
227.000000	83.230576	164.7371
230.000000	83.191704	165.1096
233.000000	83.143997	165.7106
236.000000	83.109657	166.0734
240.000000	83.040222	166.7282
243.000000	83.005890	166.8686
247.000000	82.933365	167.4360
250.000000	82.891083	167.9991
254.000000	82.828156	168.4506
258.000000	82.769417	169.0648
262.000000	82.691475	169.6275
265.000000	82.650208	169.9147
269.000000	82.618935	170.5816
272.000000	82.608185	170.6488
276.000000	82.469017	171.4692
280.000000	82.479889	171.9829
285.000000	82.418892	172.3824
290.000000	82.363747	173.3668
295.000000	82.318924	173.7983
300.000000	82.269127	174.3633
304.000000	82.219650	175.0215
307.000000	82.210724	175.5483
311.000000	82.157852	175.9331
315.000000	82.123093	176.5184
320.000000	82.050720	177.1810
325.000000	82.025391	177.7079
330.000000	81.970520	178.3235
335.000000	81.913284	178.9256
340.000000	81.897537	179.4557
345.000000	81.857811	-179.7690
350.000000	81.793411	-179.1425
355.000000	81.768074	-178.5714
360.000000	81.719093	-177.9275
365.000000	81.685478	-177.4056
370.000000	81.670128	-176.8021
375.000000	81.619331	-176.1263
382.000000	81.590843	-175.3506
387.000000	81.549889	-174.8374
395.000000	81.502876	-173.8944
400.000000	81.503731	-173.2766
406.000000	81.462753	-172.6599
412.000000	81.402000	-171.7681
418.000000	81.402473	-171.3819
425.000000	81.384521	-170.5238
431.000000	81.375084	-169.9110
437.000000	81.374008	-169.1905
444.000000	81.336655	-168.4297
450.000000	81.315414	-167.6925
455.000000	81.308128	-167.2284
462.000000	81.281036	-166.4042
468.000000	81.258286	-166.0259
475.000000	81.244377	-165.3112
482.000000	81.231209	-164.7165
487.000000	81.226479	-164.2044
494.000000	81.195206	-163.7571
500.000000	81.196014	-162.8653
508.000000	81.154335	-162.0692
515.000000	81.140625	-161.3405
522.000000	81.135834	-160.7144
530.000000	81.116768	-160.0083
538.000000	81.105270	-159.0646
545.000000	81.091858	-158.4303
552.000000	81.089066	-157.6816
560.000000	81.064247	-156.7898
570.000000	81.062912	-155.9518
580.000000	81.042526	-154.9958
590.000000	81.035645	-154.0021
600.000000	81.034485	-153.0686
608.000000	81.029510	-152.2024
615.000000	81.027695	-151.6352
622.000000	81.041588	-150.8476
630.000000	81.054443	-150.1716
640.000000	81.041748	-149.2548
650.000000	81.061996	-148.2966
660.000000	81.063698	-147.4054
670.000000	81.077286	-146.5252
680.000000	81.085991	-145.5544
690.000000	81.098152	-144.6204
700.000000	81.106659	-143.7071
710.000000	81.116135	-142.8022
720.000000	81.122063	-141.8598
730.000000	81.154060	-141.0048
740.000000	81.168755	-140.0905
750.000000	81.190102	-139.2127
762.000000	81.221992	-138.1555
775.000000	81.245811	-137.0847
788.000000	81.273056	-135.9767
800.000000	81.310509	-135.0004
812.000000	81.336830	-133.9768
825.000000	81.380424	-132.9666
838.000000	81.408218	-131.9500
850.000000	81.445000	-131.0239
862.000000	81.475418	-130.1376
875.000000	81.497330	-129.1575
885.000000	81.515984	-128.3706
900.000000	81.548477	-127.1073
912.000000	81.576004	-126.0199
925.000000	81.619598	-124.7998
938.000000	81.680435	-123.6187
950.000000	81.748650	-122.4779
962.000000	81.822166	-121.4467
975.000000	81.913849	-120.3507
988.000000	82.024330	-119.2939
1000.000000	82.178223	-118.2204
1015.000000	82.215408	-117.3832
1030.000000	82.305756	-116.4217
1044.000000	82.416847	-115.6086
1060.000000	82.550232	-114.6805
1075.000000	82.665771	-113.9326
1090.000000	82.790878	-113.2285
1106.000000	82.923592	-112.5401
1120.000000	83.031403	-111.9873
1138.000000	83.173477	-111.3676
1150.000000	83.274979	-110.9256
1172.000000	83.433022	-110.3208
1180.000000	83.484383	-110.1167
1206.000000	83.658264	-109.4972
1220.000000	83.751205	-109.1890
1241.000000	83.887856	-108.7929
1250.000000	83.939865	-108.6191
1265.000000	84.035294	-108.3803
1280.000000	84.116943	-108.1468
1315.000000	84.296440	-107.6394
1320.000000	84.323578	-107.5326
1340.000000	84.402061	-107.2945
1360.000000	84.484848	-107.0150
1380.000000	84.562515	-106.6991
1400.000000	84.635132	-106.4362
1430.000000	84.734207	-105.9472
1450.000000	84.789642	-105.6527
1475.000000	84.861397	-105.2826
1500.000000	84.936440	-104.8665
1525.000000	85.008484	-104.4820
1550.000000	85.085190	-104.0854
1575.000000	85.154930	-103.8482
1600.000000	85.227425	-103.6049
1625.000000	85.275169	-103.4127
1650.000000	85.298904	-103.3058
1675.000000	85.299347	-103.0426
1700.000000	85.290909	-102.8599
1725.000000	85.271202	-102.4807
1750.000000	85.233269	-102.0493
1775.000000	85.193710	-101.4564
1800.000000	85.141106	-100.6550
1825.000000	85.100357	-99.7717
1850.000000	85.066277	-98.6758
1875.000000	85.049469	-97.3420
1900.000000	85.072639	-95.7488
1925.000000	85.163544	-94.3390
1950.000000	85.289650	-92.8785
1975.000000	85.451912	-91.7957
2000.000000	85.591949	-91.2415
2030.000000	85.911873	-90.3674
2060.000000	86.139748	-90.3618
2090.000000	86.307762	-90.7005
2120.000000	86.417580	-91.2118
2140.000000	86.453476	-91.5334
2180.000000	86.498917	-92.0911
2200.000000	86.492325	-92.3838
2240.000000	86.459930	-92.9370
2270.000000	86.393951	-93.5020
2300.000000	86.291481	-94.0706
2330.000000	86.212280	-94.6901
2360.000000	86.096550	-95.0524
2400.000000	85.933502	-95.1006
2430.000000	85.831665	-94.8628
2470.000000	85.670525	-94.2069
2500.000000	85.543365	-93.5943
2540.000000	85.400879	-92.7308
2580.000000	85.244286	-91.7673
2620.000000	85.095718	-90.6582
2650.000000	84.989861	-89.8322
2690.000000	84.859253	-88.6015
2720.000000	84.757637	-87.5950
2760.000000	84.625916	-86.2844
2800.000000	84.508873	-84.8627
2850.000000	84.373497	-83.0959
2900.000000	84.262154	-81.3391
2950.000000	84.114319	-79.5335
3000.000000	83.982468	-77.3492
3040.000000	83.908615	-76.1275
3070.000000	83.821899	-75.0293
3110.000000	83.724579	-73.3687
3150.000000	83.637329	-71.7035
3200.000000	83.552582	-69.3277
3250.000000	83.486389	-66.9908
3300.000000	83.475220	-64.6661
3350.000000	83.481201	-62.4354
3400.000000	83.521172	-60.4581
3450.000000	83.538246	-58.6658
3500.000000	83.594475	-56.8441
3550.000000	83.642349	-55.2422
3600.000000	83.683899	-53.5688
3650.000000	83.704231	-52.0117
3700.000000	83.748001	-50.3829
3750.000000	83.773415	-48.7554
3820.000000	83.811539	-46.4223
3870.000000	83.838257	-44.7034
3950.000000	83.882439	-42.1863
4000.000000	83.881721	-40.6151
4060.000000	83.945473	-38.4469
4120.000000	83.993393	-36.4821
4180.000000	84.039177	-34.4780
4250.000000	84.129807	-32.0831
4310.000000	84.201790	-30.0850
4370.000000	84.269615	-28.0577
4440.000000	84.386673	-25.6160
4500.000000	84.505333	-23.5188
4550.000000	84.597534	-21.8783
4620.000000	84.764618	-19.3734
4680.000000	84.936386	-17.2536
4750.000000	85.168259	-14.9171
4820.000000	85.426392	-12.7503
4870.000000	85.633888	-11.3274
4940.000000	85.953125	-9.5338
5000.000000	86.237328	-8.3327
5080.000000	86.622009	-6.6214
5150.000000	87.000595	-5.5255
5220.000000	87.367752	-4.8340
5300.000000	87.780731	-4.4618
5380.000000	88.185707	-4.7027
5450.000000	88.486801	-5.3077
5520.000000	88.703323	-6.2419
5600.000000	88.846260	-7.6967
5700.000000	88.858582	-9.5802
5800.000000	88.669891	-11.0303
5900.000000	88.323181	-11.2705
6000.000000	87.931946	-9.8557
6080.000000	87.709732	-7.5460
6150.000000	87.627548	-4.7744
6220.000000	87.683296	-1.7584
6300.000000	87.934738	1.6775
6400.000000	88.487961	5.1721
6500.000000	89.238174	7.0656
6600.000000	90.025543	6.8229
6700.000000	90.731453	4.6425
6800.000000	91.222923	1.0797
6900.000000	91.446838	-3.0210
7000.000000	91.463104	-6.7402
7100.000000	91.321754	-9.5423
7200.000000	91.137749	-11.3108
7300.000000	90.954239	-12.5007
7400.000000	90.797699	-13.0796
7500.000000	90.698853	-13.2981
7620.000000	90.665222	-13.2941
7750.000000	90.720551	-13.5773
7880.000000	90.827209	-14.6309
8000.000000	90.967590	-16.8797
8120.000000	91.030373	-20.3572
8250.000000	90.858536	-25.5950
8380.000000	90.255318	-31.4490
8500.000000	89.303291	-35.6665
8620.000000	88.095306	-37.5611
8750.000000	86.728966	-36.3950
8850.000000	85.821556	-33.5853
9000.000000	84.821014	-27.6575
9120.000000	84.397522	-22.8515
9250.000000	84.204552	-18.7186
9380.000000	84.093285	-16.3035
9500.000000	83.900803	-15.5286
9620.000000	83.560524	-15.0056
9750.000000	83.000031	-14.0014
9880.000000	82.330727	-11.8118
10000.000000	81.789345	-8.4280
10150.000000	81.300842	-3.2273
10300.000000	81.113907	2.4825
10440.000000	81.207306	6.8650
10600.000000	81.422745	9.6713
10750.000000	81.515503	10.5966
10900.000000	81.408241	10.9953
11060.000000	81.077850	11.8082
11200.000000	80.728477	13.2652
11380.000000	80.261810	16.3017
11500.000000	79.990814	18.7462
11720.000000	79.626053	24.3182
11800.000000	79.563263	26.6376
12060.000000	79.519669	33.9969
12200.000000	79.628914	38.0860
12410.000000	80.108971	44.1266
12500.000000	80.400078	46.6974
12650.000000	80.982635	50.3793
12800.000000	81.690971	53.7233
13150.000000	84.043144	57.7580
13200.000000	84.452042	57.6435
13400.000000	86.204605	54.7673
13600.000000	87.935204	46.0494
13800.000000	88.951454	30.9687
14000.000000	88.595627	14.9249
14300.000000	86.687126	1.0289
14500.000000	85.476753	-2.2624
14750.000000	84.427170	-3.0762
15000.000000	84.037064	-3.4825
15250.000000	84.216171	-6.1914
15500.000000	84.737747	-15.5206
15750.000000	84.464279	-34.1631
16000.000000	82.091507	-53.6372
16250.000000	78.603592	-63.4166
16500.000000	75.264351	-64.4314
16750.000000	72.336029	-61.2844
17000.000000	69.842186	-55.3905
17250.000000	67.814041	-48.1872
17500.000000	65.864609	-39.8353
17750.000000	64.457596	-31.9012
18000.000000	63.144203	-27.2583
18250.000000	61.882019	-21.8432
18500.000000	61.119980	-16.6767
18750.000000	60.367371	-7.3354
19000.000000	60.643547	2.3289
19250.000000	60.182087	11.5235
19500.000000	60.672165	20.5440
19750.000000	60.892975	30.1130
