* Measurement data measured by REW V5.20 Beta 47
* Source: Headset (USB-C to 3.5mm Headphone Jack Adapter), MICROPHONE (Master Volume), L, volume: 0.000
* Format: 256k Log Swept Sine, 1 sweep at -3.0 dBFS with no timing reference
* Dated: Aug 11, 2020 9:34:58 AM
* REW Settings:
*  C-weighting compensation: Off
*  Target level: 75.0 dB
* Note: ; 
* Measurement: Sennheiser IE 40 Pro R
* Smoothing: None
* Frequency Step: 1/48 octave
* Start Frequency: 20.000 Hz
*
* Freq(Hz)	SPL(dB)	Phase(degrees)
20.0000	87.9531	-137.42
20.3000	88.0169	-137.91
20.6000	88.0719	-138.40
20.9000	88.1146	-138.85
21.2000	88.1496	-139.25
21.4000	88.1713	-139.45
21.8000	88.2260	-139.71
22.0000	88.2673	-139.80
22.4000	88.3907	-140.10
22.7000	88.5049	-140.54
23.0000	88.6153	-141.24
23.3000	88.6994	-142.16
23.6000	88.7414	-143.14
24.0000	88.7317	-144.26
24.3000	88.7027	-144.78
24.7000	88.6885	-145.00
25.0000	88.7266	-144.99
25.4000	88.8469	-145.14
25.8000	88.9899	-145.75
26.2000	89.0896	-146.72
26.5000	89.1195	-147.45
26.9000	89.1158	-148.12
27.2000	89.1140	-148.35
27.6000	89.1515	-148.43
28.0000	89.2332	-148.60
28.5000	89.3362	-149.23
29.0000	89.3758	-149.95
29.5000	89.3865	-150.30
30.0000	89.4477	-150.38
30.4000	89.5421	-150.65
30.7000	89.6124	-151.09
31.1000	89.6698	-151.87
31.5000	89.6823	-152.61
32.0000	89.6824	-153.20
32.5000	89.7223	-153.72
33.0000	89.7583	-154.58
33.5000	89.6988	-155.54
34.0000	89.5559	-155.69
34.5000	89.5065	-154.73
35.0000	89.6783	-153.70
35.5000	89.9659	-154.01
36.0000	90.1431	-155.60
36.5000	90.1205	-157.32
37.0000	90.0017	-158.16
37.5000	89.9448	-158.29
38.2000	89.9928	-158.81
38.7000	89.9988	-159.63
39.5000	89.9541	-160.44
40.0000	89.9864	-160.72
40.6000	90.0628	-161.39
41.2000	90.0982	-162.17
41.8000	90.1254	-162.53
42.5000	90.2336	-162.71
43.1000	90.3409	-163.24
43.7000	90.3646	-163.84
44.4000	90.3187	-163.83
45.0000	90.3528	-163.35
45.5000	90.4305	-163.47
46.2000	90.3955	-164.55
46.8000	90.1949	-164.78
47.5000	90.1495	-164.04
48.2000	90.2691	-165.35
48.7000	90.1503	-167.14
49.4000	89.8691	-167.31
50.0000	90.0933	-166.84
50.8000	90.4440	-170.92
51.5000	90.1447	-172.74
52.2000	90.6118	-170.53
53.0000	91.7395	-178.03
53.8000	90.5796	169.09
54.5000	87.8658	175.98
55.2000	88.8476	-164.91
56.0000	90.8072	-168.24
57.0000	90.2084	-172.50
58.0000	90.5250	-168.96
59.0000	90.4406	-172.96
60.0000	90.0496	-171.42
60.8000	90.2162	-171.62
61.5000	90.2251	-172.72
62.2000	90.2490	-173.43
63.0000	90.2635	-174.60
64.0000	90.1904	-174.96
65.0000	90.2594	-174.83
66.0000	90.2966	-175.02
67.0000	90.2787	-175.23
68.0000	90.2281	-175.37
69.0000	90.1494	-175.77
70.0000	90.0672	-175.64
71.0000	90.1607	-176.12
72.0000	90.1204	-177.50
73.0000	90.0444	-177.79
74.0000	90.0933	-178.18
75.0000	90.0474	-178.67
76.2000	90.0788	-178.22
77.5000	90.1376	-178.83
78.8000	90.0611	-179.04
80.0000	90.0211	-179.17
81.2000	89.9060	-179.61
82.5000	89.9015	-179.46
83.8000	89.8644	179.57
85.0000	89.9507	179.03
86.2000	89.8388	179.05
87.5000	90.1080	178.77
88.5000	89.7709	-179.60
90.0000	90.9381	-179.42
91.2000	90.0403	175.19
92.5000	89.8252	179.59
93.8000	89.6492	178.16
95.0000	89.6747	178.01
96.2000	89.5044	176.42
97.5000	89.5404	176.76
98.8000	89.6420	175.81
100.0000	89.5556	175.46
101.5000	89.4924	176.19
103.0000	89.4480	176.24
104.4000	89.3811	176.06
106.0000	89.3688	175.69
107.5000	89.4308	174.80
109.0000	89.4238	173.72
110.6000	89.1855	174.50
112.0000	89.3540	174.36
113.8000	89.1726	175.50
115.0000	89.2604	174.31
117.2000	89.0897	174.44
118.0000	89.0785	174.22
120.6000	89.0023	173.88
122.0000	88.9997	173.91
124.1000	88.9310	173.66
125.0000	88.9031	173.29
126.5000	88.7978	173.56
128.0000	88.8263	173.45
131.5000	88.7742	172.88
132.0000	88.7543	172.96
134.0000	88.7179	173.06
136.0000	88.6965	172.73
138.0000	88.6335	173.17
140.0000	88.5589	173.09
143.0000	88.5213	172.71
145.0000	88.4138	172.47
147.5000	88.4014	172.71
150.0000	88.3417	172.84
152.5000	88.2863	172.62
155.0000	88.1925	172.53
157.5000	88.1612	172.63
160.0000	88.0614	172.26
162.5000	88.0168	172.65
165.0000	87.9448	171.43
167.5000	87.8805	172.29
170.0000	87.9457	171.94
172.5000	87.8483	171.80
175.0000	87.7469	172.96
177.5000	87.7441	172.56
180.0000	87.6612	172.45
182.5000	87.5896	172.93
185.0000	87.5386	173.09
187.5000	87.4921	172.84
190.0000	87.5007	172.67
192.5000	87.3562	173.29
195.0000	87.2796	173.34
197.5000	87.3563	173.18
200.0000	87.2892	173.36
203.0000	87.2302	172.65
206.0000	87.1265	172.67
209.0000	87.0596	172.83
212.0000	86.9536	173.54
214.0000	86.8884	174.30
218.0000	86.9115	174.29
220.0000	86.8758	174.67
224.0000	86.8008	174.82
227.0000	86.8013	174.89
230.0000	86.7070	175.00
233.0000	86.6888	175.20
236.0000	86.6092	175.50
240.0000	86.5832	175.70
243.0000	86.4528	175.59
247.0000	86.4182	175.63
250.0000	86.3317	175.50
254.0000	86.3660	175.87
258.0000	86.3013	176.62
262.0000	86.1929	176.46
265.0000	86.1534	176.77
269.0000	86.1687	177.48
272.0000	86.1042	177.48
276.0000	86.0280	177.89
280.0000	85.9927	178.41
285.0000	85.9229	178.36
290.0000	85.8757	178.77
295.0000	85.7899	179.27
300.0000	85.8136	-179.85
304.0000	85.6781	179.42
307.0000	85.6096	-179.94
311.0000	85.5665	179.98
315.0000	85.6899	-179.19
320.0000	85.5100	-178.78
325.0000	85.5509	-178.62
330.0000	85.4596	-178.22
335.0000	85.3855	-177.78
340.0000	85.3394	-177.29
345.0000	85.2882	-176.65
350.0000	85.2573	-176.42
355.0000	85.2032	-176.10
360.0000	85.0993	-175.30
365.0000	85.1105	-175.14
370.0000	85.0736	-174.62
375.0000	84.9786	-174.18
382.0000	84.9880	-173.67
387.0000	84.9154	-173.23
395.0000	84.8679	-172.56
400.0000	84.8621	-172.14
406.0000	84.7786	-171.65
412.0000	84.7812	-171.23
418.0000	84.6966	-170.72
425.0000	84.6717	-169.83
431.0000	84.6282	-169.48
437.0000	84.6000	-168.95
444.0000	84.5707	-168.46
450.0000	84.5521	-167.71
455.0000	84.5274	-167.49
462.0000	84.4953	-167.01
468.0000	84.4520	-166.50
475.0000	84.4127	-165.90
482.0000	84.4044	-165.49
487.0000	84.3436	-165.02
494.0000	84.3308	-164.41
500.0000	84.3235	-164.16
508.0000	84.2462	-163.28
515.0000	84.2631	-162.69
522.0000	84.2077	-162.13
530.0000	84.1830	-161.52
538.0000	84.1420	-160.77
545.0000	84.1159	-160.28
552.0000	84.1145	-159.24
560.0000	84.0786	-158.83
570.0000	84.0525	-157.97
580.0000	84.0088	-157.40
590.0000	84.0003	-156.42
600.0000	83.9322	-155.60
608.0000	83.9248	-155.05
615.0000	83.8984	-154.24
622.0000	83.8935	-153.93
630.0000	83.9072	-153.14
640.0000	83.9050	-152.13
650.0000	83.8170	-151.37
660.0000	83.8684	-150.58
670.0000	83.8469	-149.72
680.0000	83.8466	-148.79
690.0000	83.8319	-148.11
700.0000	83.7882	-146.91
710.0000	83.8166	-146.34
720.0000	83.7950	-145.49
730.0000	83.7847	-144.69
740.0000	83.7919	-143.80
750.0000	83.8361	-142.94
762.0000	83.7815	-142.01
775.0000	83.8280	-140.72
788.0000	83.7839	-139.78
800.0000	83.7643	-138.61
812.0000	83.7966	-137.78
825.0000	83.8226	-136.27
838.0000	83.8057	-135.52
850.0000	83.8116	-134.35
862.0000	83.8722	-133.59
875.0000	83.9485	-132.56
885.0000	83.9199	-131.71
900.0000	83.9650	-130.65
912.0000	83.9927	-129.52
925.0000	84.0749	-128.33
938.0000	84.0972	-127.43
950.0000	84.1350	-126.72
962.0000	84.1878	-125.65
975.0000	84.2202	-124.85
988.0000	84.3291	-123.68
1000.0000	84.4557	-122.86
1015.0000	84.4459	-121.95
1030.0000	84.4855	-120.99
1044.0000	84.5688	-120.12
1060.0000	84.6670	-119.16
1075.0000	84.7275	-118.32
1090.0000	84.8428	-117.60
1106.0000	84.9478	-116.83
1120.0000	85.0196	-116.19
1138.0000	85.1448	-115.48
1150.0000	85.2038	-115.13
1172.0000	85.3489	-114.25
1180.0000	85.3876	-113.96
1206.0000	85.5262	-113.27
1220.0000	85.6064	-112.81
1241.0000	85.7150	-112.29
1250.0000	85.7544	-111.93
1265.0000	85.8382	-111.80
1280.0000	85.9009	-111.41
1315.0000	86.0471	-110.80
1320.0000	86.0537	-110.68
1340.0000	86.1252	-110.37
1360.0000	86.1747	-110.06
1380.0000	86.2135	-109.72
1400.0000	86.2221	-109.40
1430.0000	86.2278	-108.49
1450.0000	86.2457	-107.59
1475.0000	86.3677	-106.55
1500.0000	86.4853	-106.25
1525.0000	86.5329	-106.13
1550.0000	86.4910	-105.58
1575.0000	86.5116	-104.62
1600.0000	86.5818	-103.89
1625.0000	86.6613	-103.18
1650.0000	86.6834	-102.67
1675.0000	86.7342	-101.96
1700.0000	86.7777	-101.40
1725.0000	86.7937	-100.80
1750.0000	86.8100	-100.42
1775.0000	86.8637	-99.69
1800.0000	86.8567	-99.20
1825.0000	86.8635	-98.51
1850.0000	86.8781	-97.87
1875.0000	86.8971	-97.32
1900.0000	86.9318	-96.60
1925.0000	86.9167	-95.91
1950.0000	86.9318	-95.24
1975.0000	86.9192	-94.66
2000.0000	86.8550	-94.23
2030.0000	86.9343	-93.09
2060.0000	86.9426	-92.19
2090.0000	86.9451	-91.33
2120.0000	86.9536	-90.49
2140.0000	86.9552	-89.91
2180.0000	86.9513	-88.82
2200.0000	86.9442	-88.23
2240.0000	86.9406	-87.28
2270.0000	86.9328	-86.79
2300.0000	86.8972	-86.49
2330.0000	86.8974	-86.13
2360.0000	86.8810	-85.75
2400.0000	86.8510	-85.10
2430.0000	86.8378	-84.32
2470.0000	86.8161	-83.05
2500.0000	86.7865	-82.14
2540.0000	86.7548	-80.95
2580.0000	86.7168	-79.72
2620.0000	86.6931	-78.46
2650.0000	86.6732	-77.52
2690.0000	86.6340	-76.20
2720.0000	86.6191	-75.28
2760.0000	86.5886	-73.96
2800.0000	86.5466	-72.58
2850.0000	86.5164	-70.97
2900.0000	86.4714	-69.35
2950.0000	86.4373	-67.73
3000.0000	86.4063	-65.72
3040.0000	86.3691	-64.68
3070.0000	86.3491	-63.76
3110.0000	86.3188	-62.45
3150.0000	86.2930	-61.22
3200.0000	86.2672	-59.42
3250.0000	86.2310	-57.73
3300.0000	86.2162	-56.13
3350.0000	86.1872	-54.34
3400.0000	86.1773	-52.59
3450.0000	86.1929	-50.73
3500.0000	86.2429	-49.06
3550.0000	86.2899	-47.33
3600.0000	86.3264	-45.68
3650.0000	86.3866	-44.14
3700.0000	86.4468	-42.66
3750.0000	86.4904	-41.01
3820.0000	86.5545	-38.93
3870.0000	86.6100	-37.45
3950.0000	86.6750	-35.22
4000.0000	86.7021	-33.85
4060.0000	86.7809	-32.02
4120.0000	86.8405	-30.24
4180.0000	86.9028	-28.51
4250.0000	87.0057	-26.57
4310.0000	87.0671	-24.89
4370.0000	87.1508	-23.33
4440.0000	87.2500	-21.52
4500.0000	87.3250	-20.03
4550.0000	87.4023	-18.62
4620.0000	87.5015	-16.88
4680.0000	87.5907	-15.34
4750.0000	87.7058	-13.57
4820.0000	87.8176	-11.80
4870.0000	87.8609	-10.44
4940.0000	88.0947	-8.18
5000.0000	88.2662	-7.06
5080.0000	88.4729	-5.15
5150.0000	88.6717	-3.65
5220.0000	88.8537	-2.16
5300.0000	89.1032	-0.62
5380.0000	89.3876	0.90
5450.0000	89.6369	2.07
5520.0000	89.8610	3.15
5600.0000	90.1551	4.01
5700.0000	90.5370	4.64
5800.0000	90.9148	4.61
5900.0000	91.2528	3.84
6000.0000	91.5297	2.18
6080.0000	91.6229	-0.00
6150.0000	91.3513	-0.09
6220.0000	91.6947	-0.38
6300.0000	91.7353	-2.85
6400.0000	91.5141	-5.39
6500.0000	91.1241	-7.09
6600.0000	90.5937	-7.64
6700.0000	90.0273	-6.77
6800.0000	89.4784	-4.43
6900.0000	89.0525	-0.47
7000.0000	88.8591	4.80
7100.0000	88.9546	10.08
7200.0000	89.3271	15.21
7300.0000	90.0379	19.42
7400.0000	90.8666	21.59
7500.0000	91.7031	21.55
7620.0000	92.5160	19.25
7750.0000	92.9969	15.44
7880.0000	93.0999	11.82
8000.0000	93.0302	9.40
8120.0000	92.9147	7.98
8250.0000	92.8407	7.08
8380.0000	92.8564	6.16
8500.0000	92.9316	4.88
8620.0000	93.0138	2.45
8750.0000	92.9045	-1.90
8850.0000	92.5142	-5.95
9000.0000	91.2581	-10.44
9120.0000	89.9299	-9.81
9250.0000	88.7217	-4.14
9380.0000	88.1467	4.31
9500.0000	88.2122	12.17
9620.0000	88.7329	18.41
9750.0000	89.5933	22.92
9880.0000	90.6703	24.81
10000.0000	91.7424	23.52
10150.0000	92.9895	18.27
10300.0000	93.8698	8.05
10440.0000	93.8147	-3.79
10600.0000	92.8416	-15.02
10750.0000	91.5123	-21.42
10900.0000	90.1490	-24.26
11060.0000	88.8423	-24.72
11200.0000	87.8575	-23.74
11380.0000	86.8383	-21.04
11500.0000	86.2964	-18.84
11720.0000	85.5636	-14.28
11800.0000	85.3885	-12.59
12060.0000	85.1277	-7.05
12200.0000	85.1921	-4.26
12410.0000	85.6109	-0.68
12500.0000	85.9083	0.42
12650.0000	86.5648	1.72
12800.0000	87.4138	1.55
13150.0000	90.1093	-8.68
13200.0000	90.5040	-11.99
13400.0000	91.4583	-31.16
13600.0000	90.5199	-53.25
13800.0000	88.2353	-68.00
14000.0000	85.8024	-74.62
14300.0000	82.7514	-76.99
14500.0000	81.1418	-75.94
14750.0000	79.4692	-73.26
15000.0000	78.1503	-70.05
15250.0000	77.2164	-66.01
15500.0000	76.4700	-63.16
15750.0000	76.1168	-60.03
16000.0000	76.0807	-58.47
16250.0000	76.3042	-58.00
16500.0000	76.6490	-59.64
16750.0000	77.6562	-60.94
17000.0000	79.2848	-70.49
17250.0000	80.6890	-89.08
17500.0000	80.6063	-116.03
17750.0000	78.5960	-141.60
18000.0000	76.0122	-160.45
18250.0000	73.6974	-174.09
18500.0000	72.0334	174.58
18750.0000	70.7068	166.15
19000.0000	69.9654	158.45
19250.0000	69.7436	148.99
19500.0000	69.4984	135.84
19750.0000	69.5158	118.44
