* Measurement data measured by REW V5.20 Beta 47
* Source: Headset (USB-C to 3.5mm Headphone Jack Adapter), MICROPHONE (Master Volume), L, volume: 0.000
* Format: 256k Log Swept Sine, 1 sweep at -3.0 dBFS with no timing reference
* Dated: Jul 5, 2020 1:10:46 AM
* REW Settings:
*  C-weighting compensation: Off
*  Target level: 75.0 dB
* Note: ; 
* Measurement: Shozy Form 1.1 L
* Smoothing: None
* Frequency Step: 1/48 octave
* Start Frequency: 20.000 Hz
*
* Freq(Hz)	SPL(dB)	Phase(degrees)
20.0000	90.6283	-143.12
20.3000	90.6908	-143.63
20.6000	90.7518	-144.11
20.9000	90.8127	-144.55
21.2000	90.8791	-145.01
21.4000	90.9239	-145.32
21.8000	91.0108	-145.99
22.0000	91.0518	-146.35
22.4000	91.1276	-147.14
22.7000	91.1721	-147.73
23.0000	91.2061	-148.30
23.3000	91.2343	-148.83
23.6000	91.2584	-149.29
24.0000	91.2905	-149.81
24.3000	91.3216	-150.15
24.7000	91.3748	-150.59
25.0000	91.4199	-150.96
25.4000	91.4791	-151.53
25.8000	91.5209	-152.10
26.2000	91.5461	-152.56
26.5000	91.5671	-152.77
26.9000	91.6202	-152.86
27.2000	91.6941	-152.91
27.6000	91.8374	-153.18
28.0000	91.9930	-153.91
28.5000	92.1264	-155.43
29.0000	92.1359	-157.03
29.5000	92.0584	-158.12
30.0000	91.9886	-158.53
30.4000	91.9842	-158.67
30.7000	92.0045	-158.85
31.1000	92.0334	-159.27
31.5000	92.0413	-159.79
32.0000	92.0234	-160.28
32.5000	92.0250	-160.53
33.0000	92.0734	-160.84
33.5000	92.1301	-161.49
34.0000	92.1360	-162.30
34.5000	92.1020	-162.84
35.0000	92.0939	-162.92
35.5000	92.1700	-162.96
36.0000	92.2933	-163.51
36.5000	92.3734	-164.60
37.0000	92.3594	-165.74
37.5000	92.2889	-166.41
38.2000	92.2347	-166.56
38.7000	92.2645	-166.62
39.5000	92.3330	-167.20
40.0000	92.3479	-167.66
40.6000	92.3496	-168.15
41.2000	92.3541	-168.60
41.8000	92.3567	-169.12
42.5000	92.3384	-169.74
43.1000	92.3147	-170.15
43.7000	92.3144	-170.48
44.4000	92.3438	-171.07
45.0000	92.3452	-171.80
45.5000	92.3145	-172.29
46.2000	92.2871	-172.55
46.8000	92.3241	-172.79
47.5000	92.3534	-173.44
48.2000	92.3189	-173.83
48.7000	92.3259	-173.78
49.4000	92.4100	-174.06
50.0000	92.4251	-174.84
50.8000	92.3195	-175.40
51.5000	92.2889	-175.21
52.2000	92.3132	-175.48
53.0000	92.2593	-175.92
53.8000	92.2665	-175.88
54.5000	92.3364	-176.59
55.2000	92.2825	-177.75
56.0000	92.1401	-178.09
57.0000	92.1572	-177.99
58.0000	92.2123	-178.76
59.0000	92.2080	-179.71
60.0000	92.1180	179.52
60.8000	92.0451	179.57
61.5000	92.0614	179.62
62.2000	92.0820	179.22
63.0000	92.0420	178.71
64.0000	92.0008	178.43
65.0000	91.9837	177.92
66.0000	91.9400	177.51
67.0000	91.9326	177.15
68.0000	91.9086	176.64
69.0000	91.8733	176.32
70.0000	91.8440	176.10
71.0000	91.8284	175.84
72.0000	91.7885	175.44
73.0000	91.7308	175.19
74.0000	91.6882	174.97
75.0000	91.6592	174.78
76.2000	91.6521	174.33
77.5000	91.6053	173.88
78.8000	91.5817	173.60
80.0000	91.5514	173.27
81.2000	91.4885	173.12
82.5000	91.4869	173.00
83.8000	91.4349	172.36
85.0000	91.3894	172.06
86.2000	91.3422	171.72
87.5000	91.3409	171.56
88.5000	91.3211	171.23
90.0000	91.2743	171.19
91.2000	91.2118	171.10
92.5000	91.1842	171.21
93.8000	91.1062	170.67
95.0000	91.0334	170.48
96.2000	90.9523	170.19
97.5000	90.9545	169.81
98.8000	90.8290	169.37
100.0000	90.8344	169.58
101.5000	90.7874	169.26
103.0000	90.7458	169.06
104.4000	90.6851	168.99
106.0000	90.6490	168.86
107.5000	90.5947	168.40
109.0000	90.5314	168.40
110.6000	90.4885	168.04
112.0000	90.4501	167.95
113.8000	90.3799	167.68
115.0000	90.3984	167.63
117.2000	90.2637	167.38
118.0000	90.2554	167.45
120.6000	90.1881	167.29
122.0000	90.1742	167.40
124.1000	90.0311	167.00
125.0000	90.0358	167.20
126.5000	89.9765	167.03
128.0000	89.9352	167.24
131.5000	89.8333	167.05
132.0000	89.8214	166.92
134.0000	89.7396	166.96
136.0000	89.7317	166.58
138.0000	89.6397	166.65
140.0000	89.4844	166.57
143.0000	89.4608	166.70
145.0000	89.3757	166.51
147.5000	89.3091	166.71
150.0000	89.2561	166.76
152.5000	89.1646	166.77
155.0000	89.1184	166.75
157.5000	89.0536	166.83
160.0000	88.9633	166.71
162.5000	88.9416	166.65
165.0000	88.8853	166.78
167.5000	88.8320	166.87
170.0000	88.7611	166.92
172.5000	88.6930	167.04
175.0000	88.6339	167.08
177.5000	88.5748	167.29
180.0000	88.4986	167.56
182.5000	88.4126	167.36
185.0000	88.3702	167.20
187.5000	88.3263	167.86
190.0000	88.2542	167.94
192.5000	88.1785	167.78
195.0000	88.0901	168.09
197.5000	88.0455	168.20
200.0000	87.9659	168.51
203.0000	87.9106	168.57
206.0000	87.8470	168.81
209.0000	87.7629	168.87
212.0000	87.6814	169.13
214.0000	87.6353	169.13
218.0000	87.5752	169.44
220.0000	87.5683	169.70
224.0000	87.4611	169.82
227.0000	87.4115	170.18
230.0000	87.3706	170.50
233.0000	87.3052	170.53
236.0000	87.2712	170.76
240.0000	87.2050	171.22
243.0000	87.1524	171.48
247.0000	87.0636	171.66
250.0000	87.0278	171.95
254.0000	86.9327	172.37
258.0000	86.8859	172.59
262.0000	86.8140	172.83
265.0000	86.7707	173.16
269.0000	86.6963	173.51
272.0000	86.6716	173.92
276.0000	86.6178	174.18
280.0000	86.5636	174.61
285.0000	86.4676	175.05
290.0000	86.4440	175.62
295.0000	86.3501	176.04
300.0000	86.2765	176.54
304.0000	86.2340	176.77
307.0000	86.1924	176.93
311.0000	86.1399	177.48
315.0000	86.0929	177.68
320.0000	86.0328	178.18
325.0000	85.9786	178.68
330.0000	85.9304	179.34
335.0000	85.8480	179.76
340.0000	85.8042	-179.86
345.0000	85.7611	-179.28
350.0000	85.6925	-178.78
355.0000	85.6474	-178.40
360.0000	85.5994	-177.89
365.0000	85.5362	-177.28
370.0000	85.4931	-176.87
375.0000	85.4518	-176.42
382.0000	85.3866	-175.79
387.0000	85.3688	-175.42
395.0000	85.2862	-174.53
400.0000	85.2447	-173.98
406.0000	85.2109	-173.56
412.0000	85.1618	-172.88
418.0000	85.1154	-172.37
425.0000	85.0763	-171.66
431.0000	85.0154	-171.14
437.0000	84.9840	-170.49
444.0000	84.9627	-169.84
450.0000	84.9333	-169.23
455.0000	84.8965	-168.77
462.0000	84.8552	-168.29
468.0000	84.8203	-167.79
475.0000	84.7753	-167.16
482.0000	84.7482	-166.66
487.0000	84.7137	-166.24
494.0000	84.6755	-165.61
500.0000	84.6558	-165.10
508.0000	84.6166	-164.32
515.0000	84.5755	-163.66
522.0000	84.5515	-163.00
530.0000	84.5041	-162.29
538.0000	84.4585	-161.56
545.0000	84.4297	-160.92
552.0000	84.4127	-160.24
560.0000	84.3731	-159.49
570.0000	84.3243	-158.59
580.0000	84.2912	-157.70
590.0000	84.2536	-156.81
600.0000	84.2095	-155.90
608.0000	84.1867	-155.12
615.0000	84.1624	-154.48
622.0000	84.1494	-153.86
630.0000	84.1240	-153.17
640.0000	84.1013	-152.25
650.0000	84.0851	-151.39
660.0000	84.0655	-150.55
670.0000	84.0482	-149.88
680.0000	83.9874	-149.59
690.0000	83.8134	-148.27
700.0000	83.7832	-146.87
710.0000	83.7533	-145.74
720.0000	83.6935	-144.59
730.0000	83.6309	-143.31
740.0000	83.5637	-141.67
750.0000	83.5663	-139.33
762.0000	83.8462	-137.21
775.0000	84.0575	-137.02
788.0000	84.0768	-136.65
800.0000	84.0657	-136.02
812.0000	84.0365	-135.16
825.0000	84.0231	-134.08
838.0000	84.0106	-133.00
850.0000	84.0108	-131.92
862.0000	84.0091	-130.82
875.0000	84.0182	-129.64
885.0000	84.0332	-128.75
900.0000	84.0487	-127.37
912.0000	84.0767	-126.26
925.0000	84.1056	-125.06
938.0000	84.1452	-123.92
950.0000	84.1759	-122.85
962.0000	84.2213	-121.77
975.0000	84.2617	-120.60
988.0000	84.3353	-119.40
1000.0000	84.4473	-118.29
1015.0000	84.4336	-117.27
1030.0000	84.4869	-116.11
1044.0000	84.5549	-115.05
1060.0000	84.6302	-113.85
1075.0000	84.7147	-112.77
1090.0000	84.8072	-111.78
1106.0000	84.9036	-110.77
1120.0000	84.9890	-109.88
1138.0000	85.0980	-108.84
1150.0000	85.1702	-108.19
1172.0000	85.3005	-106.99
1180.0000	85.3521	-106.61
1206.0000	85.5032	-105.38
1220.0000	85.5837	-104.69
1241.0000	85.7064	-103.80
1250.0000	85.7584	-103.42
1265.0000	85.8398	-102.81
1280.0000	85.9189	-102.22
1315.0000	86.0936	-100.88
1320.0000	86.1158	-100.69
1340.0000	86.2033	-99.92
1360.0000	86.2927	-99.21
1380.0000	86.3755	-98.50
1400.0000	86.4565	-97.75
1430.0000	86.5702	-96.62
1450.0000	86.6446	-95.91
1475.0000	86.7388	-95.00
1500.0000	86.8222	-94.11
1525.0000	86.9129	-93.12
1550.0000	86.9982	-92.26
1575.0000	87.0908	-91.39
1600.0000	87.1772	-90.44
1625.0000	87.2649	-89.51
1650.0000	87.3563	-88.62
1675.0000	87.4505	-87.74
1700.0000	87.5394	-86.85
1725.0000	87.6288	-86.00
1750.0000	87.7168	-85.15
1775.0000	87.8068	-84.33
1800.0000	87.8954	-83.54
1825.0000	87.9928	-82.75
1850.0000	88.0786	-81.99
1875.0000	88.1699	-81.22
1900.0000	88.2553	-80.54
1925.0000	88.3373	-79.83
1950.0000	88.4241	-79.14
1975.0000	88.4860	-78.59
2000.0000	88.4996	-78.24
2030.0000	88.6521	-77.15
2060.0000	88.7532	-76.44
2090.0000	88.8351	-75.75
2120.0000	88.9104	-75.11
2140.0000	88.9587	-74.68
2180.0000	89.0397	-73.88
2200.0000	89.0819	-73.48
2240.0000	89.1605	-72.89
2270.0000	89.1947	-72.71
2300.0000	89.2212	-72.65
2330.0000	89.2513	-72.65
2360.0000	89.2650	-72.64
2400.0000	89.2792	-72.37
2430.0000	89.2976	-71.93
2470.0000	89.2940	-71.08
2500.0000	89.2779	-70.50
2540.0000	89.2633	-69.60
2580.0000	89.2305	-68.68
2620.0000	89.2123	-67.71
2650.0000	89.1793	-66.95
2690.0000	89.1419	-65.86
2720.0000	89.1351	-65.01
2760.0000	89.0814	-63.87
2800.0000	89.0494	-62.73
2850.0000	88.9981	-60.97
2900.0000	88.9498	-59.52
2950.0000	88.9110	-57.76
3000.0000	88.8873	-55.68
3040.0000	88.9107	-54.42
3070.0000	88.8825	-53.57
3110.0000	88.8665	-51.91
3150.0000	88.8991	-50.37
3200.0000	88.9263	-48.52
3250.0000	88.9367	-46.69
3300.0000	88.9956	-45.14
3350.0000	89.0403	-42.96
3400.0000	89.1529	-41.13
3450.0000	89.2570	-39.30
3500.0000	89.3438	-37.59
3550.0000	89.4927	-36.26
3600.0000	89.6575	-34.13
3650.0000	89.8746	-32.80
3700.0000	90.0729	-31.53
3750.0000	90.2919	-30.11
3820.0000	90.5852	-28.56
3870.0000	90.7678	-28.71
3950.0000	90.8647	-26.53
4000.0000	91.0385	-25.57
4060.0000	91.3707	-23.80
4120.0000	91.7417	-23.29
4180.0000	92.1111	-23.66
4250.0000	92.5062	-24.44
4310.0000	92.7236	-24.99
4370.0000	92.9476	-26.68
4440.0000	92.9879	-28.89
4500.0000	92.9318	-29.50
4550.0000	92.7582	-29.97
4620.0000	92.8625	-29.74
4680.0000	92.9224	-29.95
4750.0000	93.1015	-30.80
4820.0000	93.2989	-33.27
4870.0000	93.3619	-34.97
4940.0000	93.0326	-38.00
5000.0000	92.8725	-39.98
5080.0000	92.2925	-41.94
5150.0000	91.6691	-42.92
5220.0000	91.1460	-44.09
5300.0000	90.3991	-43.09
5380.0000	89.7914	-41.75
5450.0000	89.2805	-39.74
5520.0000	88.9092	-37.51
5600.0000	88.2805	-34.23
5700.0000	87.8595	-29.07
5800.0000	87.3516	-25.05
5900.0000	87.2131	-21.64
6000.0000	86.8132	-17.09
6080.0000	86.6956	-13.41
6150.0000	86.4970	-8.66
6220.0000	86.4019	-4.76
6300.0000	86.7243	-1.10
6400.0000	86.8363	4.12
6500.0000	86.6644	9.10
6600.0000	87.2774	13.98
6700.0000	87.6106	17.88
6800.0000	88.1154	23.22
6900.0000	88.5700	25.11
7000.0000	89.1908	30.51
7100.0000	90.1757	33.12
7200.0000	91.1008	33.09
7300.0000	92.5646	33.50
7400.0000	93.5333	29.95
7500.0000	94.6711	25.27
7620.0000	95.8288	17.66
7750.0000	96.3254	6.66
7880.0000	95.5821	-7.31
8000.0000	94.6144	-13.94
8120.0000	93.7225	-13.97
8250.0000	92.4142	-18.32
8380.0000	91.5630	-17.69
8500.0000	91.3116	-13.61
8620.0000	90.1221	-12.82
8750.0000	89.9767	-10.82
8850.0000	90.5199	-11.56
9000.0000	90.1707	-14.38
9120.0000	89.3356	-10.87
9250.0000	89.0925	-13.96
9380.0000	88.8661	-19.75
9500.0000	88.8854	-22.92
9620.0000	87.5590	-19.72
9750.0000	86.6463	-22.07
9880.0000	85.6341	-27.39
10000.0000	85.3257	-27.67
10150.0000	84.5932	-19.43
10300.0000	83.8160	-20.39
10440.0000	82.3235	-19.46
10600.0000	81.6392	-13.02
10750.0000	82.2171	-10.26
10900.0000	82.0812	-8.57
11060.0000	80.8249	-8.34
11200.0000	80.6644	-7.90
11380.0000	81.5031	-4.95
11500.0000	80.5510	4.40
11720.0000	80.4664	-0.61
11800.0000	81.7067	-3.21
12060.0000	81.3099	-1.40
12200.0000	80.4605	-16.87
12410.0000	80.8067	-24.13
12500.0000	79.0641	-22.43
12650.0000	79.1586	-15.77
12800.0000	79.0964	-17.87
13150.0000	77.0978	-16.49
13200.0000	77.2214	-34.65
13400.0000	77.3542	-25.07
13600.0000	75.2104	-32.17
13800.0000	74.5950	-30.74
14000.0000	76.2211	-30.50
14300.0000	74.4246	-19.55
14500.0000	74.4604	-21.69
14750.0000	77.7690	-51.47
15000.0000	76.8029	-71.09
15250.0000	77.1057	-77.62
15500.0000	73.6088	-115.51
15750.0000	70.7432	-114.11
16000.0000	62.1244	-110.55
16250.0000	60.3981	-99.52
16500.0000	60.5160	-122.07
16750.0000	57.8022	-71.53
17000.0000	57.8417	-62.52
17250.0000	61.2318	-101.00
17500.0000	59.3823	-69.27
17750.0000	60.0664	-81.31
18000.0000	65.0785	-142.39
18250.0000	62.1042	-109.74
18500.0000	64.1653	-120.38
18750.0000	62.8473	173.60
19000.0000	71.1619	175.14
19250.0000	71.0530	128.84
19500.0000	71.1764	121.03
19750.0000	68.0135	136.49
