* Measurement data measured by REW V5.20 Beta 60
* Source: Headset (USB-C to 3.5mm Headphone Jack Adapter), MICROPHONE (Master Volume), R, volume: 0.258
* Format: 256k Log Swept Sine, 1 sweep at -12.0 dBFS with no timing reference
* Dated: Apr 6, 2021 5:28:18 PM
* REW Settings:
*  C-weighting compensation: Off
*  Target level: 75.0 dB
* Note: ; 
* Measurement: UE LIVE To-Go L
* Smoothing: None
* Frequency Step: 1/48 octave
* Start Frequency: 20.000 Hz
*
* Freq(Hz)	SPL(dB)	Phase(degrees)
20.000000	93.292084	-176.6940
20.299999	93.245956	-176.6638
20.600000	93.223068	-176.3880
20.900000	93.244537	-176.0080
21.200001	93.317764	-175.7928
21.400000	93.377365	-175.8535
21.799999	93.477570	-176.4491
22.000000	93.498459	-176.9174
22.400000	93.460732	-177.9031
22.700001	93.374474	-178.3619
23.000000	93.279808	-178.4063
23.299999	93.223366	-178.1428
23.600000	93.222412	-177.8009
24.000000	93.294800	-177.6384
24.299999	93.364365	-177.9205
24.700001	93.420113	-178.7221
25.000000	93.417442	-179.4115
25.400000	93.372604	179.8155
25.799999	93.317749	179.3174
26.200001	93.278961	178.9573
26.500000	93.257401	178.7102
26.900000	93.228592	178.4691
27.200001	93.215790	178.4144
27.600000	93.238541	178.4902
28.000000	93.324409	178.4519
28.500000	93.470154	177.6811
29.000000	93.514130	176.1793
29.500000	93.381020	174.8806
30.000000	93.166557	174.8397
30.400000	93.074234	175.6661
30.700001	93.089775	176.3997
31.100000	93.188278	176.9570
31.500000	93.293793	176.8705
32.000000	93.336136	176.3312
32.500000	93.293221	176.0410
33.000000	93.258514	176.2073
33.500000	93.277283	176.3856
34.000000	93.307762	176.2410
34.500000	93.307518	175.9028
35.000000	93.278214	175.6504
35.500000	93.253365	175.5151
36.000000	93.241196	175.3608
36.500000	93.226898	175.1217
37.000000	93.203110	174.9001
37.500000	93.181839	174.7542
38.200001	93.167854	174.6101
38.700001	93.165421	174.4909
39.500000	93.172356	174.3016
40.000000	93.180557	174.1530
40.599998	93.180229	173.9060
41.200001	93.163147	173.7091
41.799999	93.147079	173.6376
42.500000	93.148705	173.5800
43.099998	93.156303	173.3913
43.700001	93.147415	173.1133
44.400002	93.113884	172.8570
45.000000	93.087242	172.7740
45.500000	93.080765	172.7372
46.200001	93.087662	172.5947
46.799999	93.085907	172.3554
47.500000	93.063652	172.1342
48.200001	93.048912	172.0967
48.700001	93.057549	172.0472
49.400002	93.069107	171.8058
50.000000	93.050735	171.5890
50.799999	93.028572	171.4874
51.500000	93.036598	171.3837
52.200001	93.030472	171.1010
53.000000	92.993462	170.8904
53.799999	92.975319	170.8257
54.500000	92.965866	170.6852
55.200001	92.952545	170.5601
56.000000	92.949043	170.4027
57.000000	92.922577	170.0839
58.000000	92.895493	170.0194
59.000000	92.898727	169.7805
60.000000	92.869858	169.5031
60.799999	92.846313	169.3681
61.500000	92.827202	169.2542
62.200001	92.812500	169.1923
63.000000	92.809662	169.0635
64.000000	92.780342	168.8023
65.000000	92.755501	168.8175
66.000000	92.767006	168.6800
67.000000	92.757004	168.3918
68.000000	92.734215	168.1437
69.000000	92.709442	167.9836
70.000000	92.695602	167.8370
71.000000	92.674080	167.6604
72.000000	92.658379	167.5856
73.000000	92.653694	167.4326
74.000000	92.635040	167.2326
75.000000	92.611183	167.1461
76.199997	92.617279	166.9721
77.500000	92.583084	166.5371
78.800003	92.543564	166.3985
80.000000	92.527069	166.2745
81.199997	92.520424	166.1291
82.500000	92.511528	165.8977
83.800003	92.475456	165.6787
85.000000	92.452278	165.6293
86.199997	92.426414	165.4861
87.500000	92.403114	165.3413
88.500000	92.383057	165.2066
90.000000	92.368599	164.9426
91.199997	92.345329	164.7055
92.500000	92.319199	164.4933
93.800003	92.300591	164.3410
95.000000	92.276222	164.1219
96.199997	92.237373	164.0009
97.500000	92.217102	163.9420
98.800003	92.193901	163.7249
100.000000	92.171120	163.5117
101.500000	92.115311	163.3516
103.000000	92.104477	163.1376
104.400002	92.062714	162.9763
106.000000	92.033798	162.8116
107.500000	92.021301	162.5345
109.000000	91.987244	162.4466
110.599998	91.954552	162.1831
112.000000	91.948509	162.1924
113.800003	91.905212	161.9036
115.000000	91.890266	161.8225
117.199997	91.828995	161.5271
118.000000	91.828026	161.5154
120.599998	91.761505	161.1260
122.000000	91.761833	161.0666
124.099998	91.698792	160.8598
125.000000	91.701157	160.7506
126.500000	91.638184	160.4547
128.000000	91.609116	160.4494
131.500000	91.516373	160.1108
132.000000	91.510391	160.1139
134.000000	91.481903	159.8089
136.000000	91.435326	159.7108
138.000000	91.399315	159.4921
140.000000	91.350670	159.3384
143.000000	91.282768	159.1655
145.000000	91.227615	158.9391
147.500000	91.181656	158.7194
150.000000	91.136520	158.5275
152.500000	91.074448	158.5013
155.000000	91.037125	158.1838
157.500000	90.992889	157.9962
160.000000	90.942024	157.7652
162.500000	90.914291	157.5464
165.000000	90.877663	157.5455
167.500000	90.824440	157.1281
170.000000	90.811737	157.2441
172.500000	90.710793	157.0220
175.000000	90.664780	156.9371
177.500000	90.598152	156.7715
180.000000	90.551056	156.5396
182.500000	90.469765	156.3406
185.000000	90.408760	156.1910
187.500000	90.334892	156.0961
190.000000	90.286728	156.0009
192.500000	90.244675	155.8513
195.000000	90.172394	155.7741
197.500000	90.098053	155.6109
200.000000	90.051872	155.3722
203.000000	89.978668	155.2542
206.000000	89.910553	155.2153
209.000000	89.829208	154.9892
212.000000	89.756142	154.9341
214.000000	89.712067	154.8274
218.000000	89.629425	154.7421
220.000000	89.588654	154.6814
224.000000	89.513351	154.5563
227.000000	89.449524	154.5055
230.000000	89.392860	154.3694
233.000000	89.327293	154.2666
236.000000	89.274139	154.3143
240.000000	89.194130	154.1348
243.000000	89.117622	154.0190
247.000000	89.028717	154.0621
250.000000	88.965805	153.9588
254.000000	88.875824	153.8473
258.000000	88.789810	153.8378
262.000000	88.697037	153.7206
265.000000	88.634575	153.7165
269.000000	88.538467	153.7101
272.000000	88.475922	153.5748
276.000000	88.399155	153.6335
280.000000	88.306900	153.6507
285.000000	88.196030	153.6191
290.000000	88.077827	153.6442
295.000000	87.978600	153.7151
300.000000	87.860077	153.6820
304.000000	87.779472	153.7360
307.000000	87.709435	153.7937
311.000000	87.618401	153.8415
315.000000	87.532867	153.8665
320.000000	87.425117	153.9632
325.000000	87.315948	154.0279
330.000000	87.211029	154.1190
335.000000	87.101845	154.2442
340.000000	86.990723	154.3666
345.000000	86.889030	154.5069
350.000000	86.780746	154.5560
355.000000	86.665848	154.7851
360.000000	86.554443	154.9386
365.000000	86.444878	155.1640
370.000000	86.343765	155.2993
375.000000	86.239693	155.4695
382.000000	86.103767	155.6968
387.000000	85.993896	155.9550
395.000000	85.837936	156.3031
400.000000	85.739647	156.6019
406.000000	85.603584	156.7783
412.000000	85.484589	157.0571
418.000000	85.374657	157.3340
425.000000	85.229179	157.7839
431.000000	85.111023	158.1060
437.000000	84.994820	158.4199
444.000000	84.858162	158.9052
450.000000	84.749954	159.2520
455.000000	84.649834	159.4838
462.000000	84.516968	159.9075
468.000000	84.399719	160.2410
475.000000	84.256577	160.6462
482.000000	84.112503	161.1892
487.000000	84.017136	161.4912
494.000000	83.891304	161.9974
500.000000	83.769409	162.4331
508.000000	83.625137	163.1107
515.000000	83.490936	163.7708
522.000000	83.358559	164.4248
530.000000	83.230156	165.1837
538.000000	83.063248	165.8475
545.000000	82.935204	166.7160
552.000000	82.815567	167.3981
560.000000	82.674797	168.3149
570.000000	82.513870	169.4022
580.000000	82.345779	170.5752
590.000000	82.167130	171.7591
600.000000	82.038879	172.9329
608.000000	81.906021	174.0731
615.000000	81.816528	174.9899
622.000000	81.716393	175.9468
630.000000	81.611847	177.0758
640.000000	81.477402	178.3993
650.000000	81.367111	179.9012
660.000000	81.261322	-178.6019
670.000000	81.161331	-177.1694
680.000000	81.058083	-175.5079
690.000000	80.973534	-174.0048
700.000000	80.879028	-172.4655
710.000000	80.820892	-170.8160
720.000000	80.758385	-169.1202
730.000000	80.702209	-167.4716
740.000000	80.670723	-165.9024
750.000000	80.632652	-164.1713
762.000000	80.612198	-162.2177
775.000000	80.598671	-160.0600
788.000000	80.600815	-157.9610
800.000000	80.605949	-155.9281
812.000000	80.638901	-154.0376
825.000000	80.691574	-152.0298
838.000000	80.749313	-149.9668
850.000000	80.819702	-148.1752
862.000000	80.896477	-146.4181
875.000000	80.998688	-144.5219
885.000000	81.074448	-143.1338
900.000000	81.197922	-141.1717
912.000000	81.336266	-139.5228
925.000000	81.478798	-137.9176
938.000000	81.625412	-136.4233
950.000000	81.763039	-134.9711
962.000000	81.906601	-133.6681
975.000000	82.071968	-132.3409
988.000000	82.266243	-130.9550
1000.000000	82.488663	-129.6266
1015.000000	82.609634	-128.6679
1030.000000	82.802017	-127.4699
1044.000000	82.995735	-126.4409
1060.000000	83.226555	-125.3964
1075.000000	83.439758	-124.4484
1090.000000	83.668396	-123.6517
1106.000000	83.911095	-122.9040
1120.000000	84.122757	-122.3481
1138.000000	84.387527	-121.6796
1150.000000	84.558556	-121.3229
1172.000000	84.877670	-120.7600
1180.000000	84.986969	-120.5979
1206.000000	85.357864	-120.2685
1220.000000	85.547569	-120.1382
1241.000000	85.833755	-120.0066
1250.000000	85.952621	-119.9856
1265.000000	86.149620	-120.0327
1280.000000	86.336372	-120.1089
1315.000000	86.765251	-120.4848
1320.000000	86.820930	-120.5494
1340.000000	87.038536	-120.9162
1360.000000	87.235596	-121.2089
1380.000000	87.449631	-121.4628
1400.000000	87.680359	-121.8473
1430.000000	87.976242	-122.6339
1450.000000	88.160828	-123.2350
1475.000000	88.389709	-124.0747
1500.000000	88.608345	-124.8989
1525.000000	88.818192	-125.7240
1550.000000	89.030067	-126.8546
1575.000000	89.221230	-128.1111
1600.000000	89.394669	-129.3858
1625.000000	89.549751	-130.8686
1650.000000	89.678230	-132.4201
1675.000000	89.785736	-133.9716
1700.000000	89.857124	-135.6333
1725.000000	89.915817	-137.3144
1750.000000	89.941513	-139.0338
1775.000000	89.938522	-140.7385
1800.000000	89.908615	-142.4536
1825.000000	89.841721	-144.0723
1850.000000	89.750870	-145.6462
1875.000000	89.637901	-147.0711
1900.000000	89.516449	-148.4074
1925.000000	89.357124	-149.6251
1950.000000	89.182144	-150.6965
1975.000000	88.983009	-151.6520
2000.000000	88.723618	-152.6285
2030.000000	88.557785	-152.9193
2060.000000	88.350006	-153.2409
2090.000000	88.140411	-153.5353
2120.000000	87.940605	-153.7497
2140.000000	87.805611	-153.8207
2180.000000	87.527885	-153.7484
2200.000000	87.385742	-153.6342
2240.000000	87.133972	-153.3852
2270.000000	86.948433	-153.2692
2300.000000	86.766617	-153.2586
2330.000000	86.619400	-153.0707
2360.000000	86.475586	-152.9151
2400.000000	86.313889	-152.2517
2430.000000	86.238625	-151.5013
2470.000000	86.169075	-150.3165
2500.000000	86.136032	-149.5745
2540.000000	86.115097	-148.6733
2580.000000	86.105484	-147.9173
2620.000000	86.100769	-147.1859
2650.000000	86.114883	-146.7274
2690.000000	86.156769	-146.1030
2720.000000	86.191078	-145.6891
2760.000000	86.255539	-145.2906
2800.000000	86.316277	-144.9352
2850.000000	86.431084	-144.7583
2900.000000	86.577362	-144.9209
2950.000000	86.740540	-145.3806
3000.000000	86.893883	-145.8312
3040.000000	87.010056	-147.1375
3070.000000	87.089745	-148.0263
3110.000000	87.168823	-149.3503
3150.000000	87.232620	-150.8310
3200.000000	87.266693	-152.9291
3250.000000	87.248901	-155.1792
3300.000000	87.190033	-157.4460
3350.000000	87.060364	-159.8941
3400.000000	86.894699	-162.1220
3450.000000	86.667221	-164.2241
3500.000000	86.433769	-166.1243
3550.000000	86.165176	-167.6812
3600.000000	85.898872	-168.7916
3650.000000	85.649483	-169.8786
3700.000000	85.415764	-170.5419
3750.000000	85.200699	-171.3708
3820.000000	84.896538	-172.3546
3870.000000	84.677353	-172.8703
3950.000000	84.331627	-173.7269
4000.000000	84.118073	-174.2591
4060.000000	83.910812	-174.4513
4120.000000	83.670837	-174.9587
4180.000000	83.375580	-175.1491
4250.000000	83.058929	-174.8139
4310.000000	82.824455	-173.9682
4370.000000	82.645432	-172.8376
4440.000000	82.564384	-171.2085
4500.000000	82.588676	-169.7166
4550.000000	82.711365	-168.6304
4620.000000	82.942924	-167.7989
4680.000000	83.194893	-167.7427
4750.000000	83.481438	-168.4803
4820.000000	83.686638	-170.0142
4870.000000	83.790306	-171.1449
4940.000000	83.851479	-173.1270
5000.000000	83.821625	-174.6563
5080.000000	83.725090	-176.0807
5150.000000	83.575272	-176.8897
5220.000000	83.428719	-177.2089
5300.000000	83.286850	-177.1242
5380.000000	83.174698	-176.6517
5450.000000	83.110123	-176.0157
5520.000000	83.054474	-175.1586
5600.000000	83.036499	-173.9796
5700.000000	83.095749	-172.4283
5800.000000	83.239037	-170.9048
5900.000000	83.459610	-169.2743
6000.000000	83.776115	-167.9096
6080.000000	84.092850	-166.8756
6150.000000	84.405823	-166.3337
6220.000000	84.779007	-165.8102
6300.000000	85.227791	-165.5820
6400.000000	85.860870	-166.0062
6500.000000	86.506317	-167.3569
6600.000000	87.162331	-169.7421
6700.000000	87.719009	-173.6344
6800.000000	88.073624	-178.8251
6900.000000	88.020737	175.4229
7000.000000	87.487350	171.6506
7100.000000	87.069778	173.2535
7200.000000	87.241615	172.6531
7300.000000	86.837334	172.6710
7400.000000	86.741951	176.9483
7500.000000	87.254120	-178.4008
7620.000000	88.382019	-175.6627
7750.000000	89.769638	-176.8292
7880.000000	91.053345	178.6543
8000.000000	92.081589	171.9481
8120.000000	92.882957	162.9124
8250.000000	93.354401	151.0055
8380.000000	93.214310	137.7324
8500.000000	92.534134	125.7725
8620.000000	91.387695	115.6771
8750.000000	89.755264	107.5071
8850.000000	88.416084	103.4368
9000.000000	86.403000	100.2319
9120.000000	84.882797	99.5145
9250.000000	83.350151	100.2009
9380.000000	81.908417	102.0867
9500.000000	80.680702	104.4841
9620.000000	79.555534	107.4863
9750.000000	78.411781	111.0734
9880.000000	77.333046	115.4753
10000.000000	76.479912	119.5054
10150.000000	75.498421	125.2590
10300.000000	74.642181	130.8400
10440.000000	73.980690	137.2790
10600.000000	73.305389	143.7636
10750.000000	72.836540	149.4246
10900.000000	72.395370	154.9006
11060.000000	71.929871	160.8218
11200.000000	71.644188	165.5348
11380.000000	71.147736	172.0432
11500.000000	71.011215	176.9823
11720.000000	70.706398	-174.7910
11800.000000	70.476616	-171.6960
12060.000000	70.505684	-161.3510
12200.000000	70.492874	-156.5034
12410.000000	70.752243	-149.0613
12500.000000	70.892563	-145.6229
12650.000000	71.127617	-140.6904
12800.000000	71.580597	-135.9228
13150.000000	72.735214	-125.7035
13200.000000	72.930557	-124.6898
13400.000000	73.853745	-119.3490
13600.000000	74.822952	-115.6420
13800.000000	75.949738	-113.5530
14000.000000	77.118805	-112.8735
14300.000000	78.849113	-114.4495
14500.000000	79.866730	-117.1820
14750.000000	80.966324	-121.6831
15000.000000	82.019142	-125.9673
15250.000000	83.157837	-130.5645
15500.000000	84.612267	-136.3781
15750.000000	86.492867	-145.7421
16000.000000	88.588058	-161.7211
16250.000000	90.148727	172.8720
16500.000000	90.050377	142.0775
16750.000000	88.365700	115.5894
17000.000000	86.205589	96.9177
17250.000000	84.366188	83.4460
17500.000000	83.071777	71.3098
17750.000000	82.346680	55.8731
18000.000000	81.773552	31.6039
18250.000000	80.468430	-0.0580
18500.000000	77.675514	-30.6392
18750.000000	74.195686	-52.0773
19000.000000	71.113464	-67.2969
19250.000000	68.448227	-80.6902
19500.000000	66.192802	-94.6320
19750.000000	64.240936	-112.1580
