* Measurement data measured by REW V5.20 Beta 60
* Source: Headset (USB-C to 3.5mm Headphone Jack Adapter), MICROPHONE (Master Volume), R, volume: 0.258
* Format: 256k Log Swept Sine, 1 sweep at -12.0 dBFS with no timing reference
* Dated: May 16, 2021 2:39:50 PM
* REW Settings:
*  C-weighting compensation: Off
*  Target level: 75.0 dB
* Note: ; 
* Measurement: UM Mini MEST R
* Smoothing: None
* Frequency Step: 1/48 octave
* Start Frequency: 20.000 Hz
*
* Freq(Hz)	SPL(dB)	Phase(degrees)
20.000000	91.861664	-170.0929
20.299999	91.894493	-170.4932
20.600000	91.926392	-170.9362
20.900000	91.950439	-171.4131
21.200001	91.966225	-171.9093
21.400000	91.970390	-172.2209
21.799999	91.968826	-172.7591
22.000000	91.967789	-172.9851
22.400000	91.976776	-173.3982
22.700001	91.991104	-173.6906
23.000000	92.010223	-174.0120
23.299999	92.031212	-174.3880
23.600000	92.047180	-174.8005
24.000000	92.054741	-175.3698
24.299999	92.051704	-175.7795
24.700001	92.040405	-176.2580
25.000000	92.031639	-176.5600
25.400000	92.028435	-176.9221
25.799999	92.034256	-177.2690
26.200001	92.047417	-177.6690
26.500000	92.057503	-178.0229
26.900000	92.061714	-178.5349
27.200001	92.056183	-178.9214
27.600000	92.039711	-179.3859
28.000000	92.018532	-179.7510
28.500000	92.005066	179.8919
29.000000	92.012772	179.5436
29.500000	92.032677	179.0874
30.000000	92.042068	178.5530
30.400000	92.040138	178.1273
30.700001	92.034935	177.8457
31.100000	92.029541	177.5088
31.500000	92.029030	177.1781
32.000000	92.028969	176.7488
32.500000	92.024086	176.3002
33.000000	92.011757	175.8957
33.500000	91.998093	175.5358
34.000000	91.985207	175.1931
34.500000	91.973984	174.8322
35.000000	91.956406	174.4945
35.500000	91.938713	174.2068
36.000000	91.928253	173.9407
36.500000	91.922707	173.6057
37.000000	91.909454	173.2059
37.500000	91.884544	172.8206
38.200001	91.848892	172.4249
38.700001	91.839798	172.1454
39.500000	91.826141	171.4878
40.000000	91.792557	171.0871
40.599998	91.745377	170.8117
41.200001	91.733185	170.6623
41.799999	91.747177	170.3474
42.500000	91.738518	169.7911
43.099998	91.710533	169.4174
43.700001	91.693794	169.1141
44.400002	91.673172	168.6582
45.000000	91.632980	168.3124
45.500000	91.604507	168.1672
46.200001	91.600433	167.9420
46.799999	91.592964	167.4572
47.500000	91.517105	166.9168
48.200001	91.438324	166.9615
48.700001	91.447510	167.0703
49.400002	91.498222	166.5724
50.000000	91.447983	165.7983
50.799999	91.309174	165.6899
51.500000	91.347313	166.0183
52.200001	91.416458	165.1290
53.000000	91.236610	164.1313
53.799999	91.143791	165.1770
54.500000	91.334412	165.0289
55.200001	91.310272	163.1538
56.000000	90.971802	163.1535
57.000000	91.179840	164.8387
58.000000	91.227081	161.5930
59.000000	90.710541	162.4874
60.000000	91.108574	164.0310
60.799999	91.172302	160.9328
61.500000	90.753174	159.9492
62.200001	90.553566	162.1241
63.000000	90.878273	163.1623
64.000000	90.967644	160.1619
65.000000	90.523643	159.8815
66.000000	90.575287	161.9445
67.000000	90.804245	160.6918
68.000000	90.585464	159.0303
69.000000	90.362427	159.9897
70.000000	90.498260	160.7114
71.000000	90.566406	159.2693
72.000000	90.335785	158.4264
73.000000	90.220398	159.3723
74.000000	90.331871	159.3889
75.000000	90.295883	158.3936
76.199997	90.173927	158.0779
77.500000	90.026619	158.1216
78.800003	90.102524	158.8584
80.000000	90.149078	157.5055
81.199997	89.975952	156.5809
82.500000	89.680588	156.9989
83.800003	89.787994	158.8279
85.000000	89.979706	157.7288
86.199997	89.932739	156.1177
87.500000	89.617905	154.9099
88.500000	89.381828	156.0047
90.000000	89.449539	157.4427
91.199997	89.553040	157.3447
92.500000	89.567841	156.4196
93.800003	89.492393	155.8238
95.000000	89.397255	155.2153
96.199997	89.257812	155.0598
97.500000	89.144119	155.2136
98.800003	89.086571	155.5541
100.000000	89.082321	155.6322
101.500000	89.057312	155.2831
103.000000	89.016068	155.1349
104.400002	88.869057	154.5638
106.000000	88.753235	155.9773
107.500000	88.859772	156.0553
109.000000	88.880554	155.1425
110.599998	88.698700	153.9271
112.000000	88.475937	154.4737
113.800003	88.427734	155.7334
115.000000	88.384003	156.8336
117.199997	88.752907	157.6883
118.000000	88.757469	156.6519
120.599998	88.541420	156.7377
122.000000	88.499672	157.1472
124.099998	88.229767	157.2406
125.000000	88.133820	157.3678
126.500000	87.866135	156.3948
128.000000	87.720871	155.0488
131.500000	88.015953	152.1107
132.000000	88.125870	152.0923
134.000000	88.371780	153.7128
136.000000	88.200790	155.4518
138.000000	87.906410	156.6752
140.000000	87.554077	155.4509
143.000000	87.489410	153.5534
145.000000	87.595024	153.9190
147.500000	87.439125	155.1576
150.000000	87.277405	155.0619
152.500000	87.228592	154.7747
155.000000	87.197906	154.5352
157.500000	87.169647	154.6865
160.000000	87.150452	154.8895
162.500000	87.131577	155.3168
165.000000	87.015793	155.7233
167.500000	86.896835	155.0409
170.000000	86.986122	154.9956
172.500000	86.939568	156.2907
175.000000	86.674690	156.4290
177.500000	86.591125	155.3257
180.000000	86.719406	155.5684
182.500000	86.585419	156.4013
185.000000	86.458298	155.9539
187.500000	86.473618	156.2042
190.000000	86.361153	156.8443
192.500000	86.223274	156.4246
195.000000	86.213821	156.4897
197.500000	86.231712	156.2947
200.000000	86.216072	157.1246
203.000000	85.989891	157.4690
206.000000	85.840813	156.8693
209.000000	85.987976	156.9071
212.000000	85.956024	157.8664
214.000000	85.862854	158.1537
218.000000	85.818192	157.7303
220.000000	85.828140	157.6621
224.000000	85.768005	158.3252
227.000000	85.648468	158.6454
230.000000	85.653023	158.5110
233.000000	85.559341	158.9944
236.000000	85.546036	159.2012
240.000000	85.497780	159.0674
243.000000	85.416290	159.5005
247.000000	85.426376	159.4556
250.000000	85.351105	159.9219
254.000000	85.281509	160.0790
258.000000	85.220451	160.1633
262.000000	85.185928	160.4432
265.000000	85.178253	160.4672
269.000000	85.093498	160.8443
272.000000	85.038734	161.0362
276.000000	85.008713	161.5864
280.000000	84.989639	161.4824
285.000000	84.914879	161.7974
290.000000	84.866196	161.5458
295.000000	84.782715	162.1739
300.000000	84.699257	162.4317
304.000000	84.676353	162.7546
307.000000	84.673744	162.9702
311.000000	84.651176	163.2183
315.000000	84.594475	163.5196
320.000000	84.548950	163.8688
325.000000	84.468765	164.2346
330.000000	84.399254	164.3107
335.000000	84.383530	164.6913
340.000000	84.384018	165.2590
345.000000	84.288803	165.5740
350.000000	84.247566	165.5479
355.000000	84.222092	165.7381
360.000000	84.158554	166.1608
365.000000	84.133018	166.4602
370.000000	84.104225	166.6511
375.000000	84.076820	166.8721
382.000000	84.019272	167.3026
387.000000	83.980057	167.4590
395.000000	83.953255	167.9260
400.000000	83.913742	168.2435
406.000000	83.882607	168.4940
412.000000	83.831078	168.7693
418.000000	83.803009	169.2430
425.000000	83.759338	169.3937
431.000000	83.738953	169.7037
437.000000	83.712967	170.1516
444.000000	83.662865	170.4554
450.000000	83.630798	170.7368
455.000000	83.621765	170.9088
462.000000	83.578918	171.1531
468.000000	83.550179	171.3812
475.000000	83.521149	171.6122
482.000000	83.483398	171.8552
487.000000	83.472527	172.1336
494.000000	83.443527	172.2414
500.000000	83.425789	172.5554
508.000000	83.380035	172.9850
515.000000	83.354004	173.2556
522.000000	83.311592	173.6781
530.000000	83.284271	173.9739
538.000000	83.256096	174.1798
545.000000	83.224571	174.5872
552.000000	83.192726	174.8979
560.000000	83.173988	175.3506
570.000000	83.121216	175.7737
580.000000	83.084183	176.2013
590.000000	83.059669	176.6669
600.000000	83.004349	177.2521
608.000000	83.006310	177.5598
615.000000	82.968437	177.8820
622.000000	82.959618	178.2085
630.000000	82.930939	178.5988
640.000000	82.902771	179.0767
650.000000	82.878815	179.4887
660.000000	82.863266	-179.9433
670.000000	82.830925	-179.5703
680.000000	82.819176	-179.0067
690.000000	82.782951	-178.5805
700.000000	82.767448	-178.0115
710.000000	82.747826	-177.4586
720.000000	82.715317	-176.9680
730.000000	82.719826	-176.4816
740.000000	82.694519	-175.9591
750.000000	82.678299	-175.3991
762.000000	82.667702	-174.7633
775.000000	82.652702	-174.0563
788.000000	82.634575	-173.2610
800.000000	82.624680	-172.6457
812.000000	82.620209	-171.9502
825.000000	82.622391	-171.2448
838.000000	82.632156	-170.4502
850.000000	82.626076	-169.7746
862.000000	82.639030	-169.0940
875.000000	82.657707	-168.2827
885.000000	82.674194	-167.7206
900.000000	82.701393	-166.9196
912.000000	82.734291	-166.2061
925.000000	82.766953	-165.4530
938.000000	82.811806	-164.7723
950.000000	82.858101	-164.0542
962.000000	82.909325	-163.3764
975.000000	82.962769	-162.6855
988.000000	83.045631	-162.0201
1000.000000	83.158646	-161.2664
1015.000000	83.159393	-160.7197
1030.000000	83.223442	-160.1127
1044.000000	83.301895	-159.5146
1060.000000	83.396851	-158.9265
1075.000000	83.486870	-158.3881
1090.000000	83.592834	-157.9008
1106.000000	83.706848	-157.4217
1120.000000	83.804291	-157.0471
1138.000000	83.932487	-156.6448
1150.000000	84.024345	-156.3572
1172.000000	84.178780	-156.0261
1180.000000	84.229721	-155.9168
1206.000000	84.411377	-155.6066
1220.000000	84.508232	-155.3954
1241.000000	84.646271	-155.2673
1250.000000	84.713356	-155.2097
1265.000000	84.813766	-155.1006
1280.000000	84.908409	-155.0297
1315.000000	85.123543	-154.8449
1320.000000	85.156448	-154.8452
1340.000000	85.273621	-154.7752
1360.000000	85.383560	-154.7111
1380.000000	85.506081	-154.6592
1400.000000	85.616249	-154.5595
1430.000000	85.781982	-154.4251
1450.000000	85.895248	-154.3489
1475.000000	86.042923	-154.2678
1500.000000	86.181213	-154.1970
1525.000000	86.327293	-154.1115
1550.000000	86.480591	-154.0253
1575.000000	86.634361	-153.9651
1600.000000	86.794968	-153.9265
1625.000000	86.961456	-153.8788
1650.000000	87.135078	-153.9179
1675.000000	87.309189	-153.9360
1700.000000	87.493004	-154.0351
1725.000000	87.676514	-154.1464
1750.000000	87.866592	-154.3635
1775.000000	88.060303	-154.6211
1800.000000	88.255280	-154.9490
1825.000000	88.453560	-155.3795
1850.000000	88.648491	-155.9086
1875.000000	88.848351	-156.5252
1900.000000	89.041306	-157.2431
1925.000000	89.233597	-158.0410
1950.000000	89.414589	-158.9804
1975.000000	89.566635	-160.0615
2000.000000	89.665642	-161.4983
2030.000000	89.906456	-162.6634
2060.000000	90.058914	-164.2074
2090.000000	90.169830	-165.9403
2120.000000	90.253967	-167.7175
2140.000000	90.291481	-168.9097
2180.000000	90.305138	-171.2717
2200.000000	90.297272	-172.3825
2240.000000	90.236443	-174.7476
2270.000000	90.140732	-176.6316
2300.000000	90.020599	-178.5249
2330.000000	89.900398	179.6721
2360.000000	89.749550	178.0483
2400.000000	89.532516	176.3232
2430.000000	89.380394	175.4114
2470.000000	89.143661	174.5848
2500.000000	88.961624	174.1573
2540.000000	88.715790	173.7622
2580.000000	88.467232	173.5894
2620.000000	88.231537	173.6154
2650.000000	88.056641	173.7793
2690.000000	87.836372	174.1685
2720.000000	87.686264	174.5978
2760.000000	87.476547	175.3559
2800.000000	87.301079	176.2937
2850.000000	87.119560	177.5923
2900.000000	86.979233	179.0690
2950.000000	86.898514	-179.2967
3000.000000	86.876953	-177.3375
3040.000000	86.901703	-176.3463
3070.000000	86.955688	-175.4900
3110.000000	87.046265	-174.4255
3150.000000	87.191933	-173.6173
3200.000000	87.405586	-172.9732
3250.000000	87.638649	-173.0054
3300.000000	87.874039	-173.7084
3350.000000	88.039261	-175.1148
3400.000000	88.107231	-177.1218
3450.000000	88.044289	-179.2929
3500.000000	87.856384	178.7242
3550.000000	87.541237	177.2130
3600.000000	87.140488	176.5283
3650.000000	86.703606	176.7041
3700.000000	86.284195	177.8081
3750.000000	85.909996	179.6409
3820.000000	85.494965	-176.8500
3870.000000	85.303452	-173.7654
3950.000000	85.197708	-168.5622
4000.000000	85.232796	-165.5100
4060.000000	85.449295	-161.6334
4120.000000	85.739655	-158.3984
4180.000000	86.092247	-155.7291
4250.000000	86.574753	-153.1539
4310.000000	86.999039	-151.6081
4370.000000	87.444969	-150.4831
4440.000000	87.967613	-149.7295
4500.000000	88.405121	-149.4585
4550.000000	88.766541	-149.5034
4620.000000	89.241234	-149.9073
4680.000000	89.634445	-150.5798
4750.000000	90.062210	-151.7597
4820.000000	90.447105	-153.2612
4870.000000	90.686478	-154.5500
4940.000000	90.978745	-156.6000
5000.000000	91.182762	-158.5231
5080.000000	91.410355	-160.8313
5150.000000	91.552147	-163.1185
5220.000000	91.638969	-165.5933
5300.000000	91.630302	-168.3671
5380.000000	91.500198	-170.8732
5450.000000	91.330856	-172.4823
5520.000000	91.101860	-173.6530
5600.000000	90.849861	-174.4982
5700.000000	90.556427	-175.0147
5800.000000	90.294502	-175.0740
5900.000000	90.074577	-174.8221
6000.000000	89.883369	-174.2764
6080.000000	89.774582	-173.6803
6150.000000	89.701378	-173.0423
6220.000000	89.661636	-172.3243
6300.000000	89.648102	-171.4765
6400.000000	89.669693	-170.3416
6500.000000	89.748550	-169.1612
6600.000000	89.884293	-168.0399
6700.000000	90.081543	-167.0161
6800.000000	90.325630	-166.1903
6900.000000	90.655930	-165.5933
7000.000000	91.074097	-165.3346
7100.000000	91.539436	-165.5171
7200.000000	92.079941	-166.3840
7300.000000	92.603348	-168.0729
7400.000000	93.146584	-170.5695
7500.000000	93.649223	-174.1487
7620.000000	94.097740	-179.8259
7750.000000	94.258514	172.9765
7880.000000	94.012062	165.8273
8000.000000	93.516983	160.1378
8120.000000	92.870819	156.0538
8250.000000	92.114731	153.2736
8380.000000	91.406998	152.0509
8500.000000	90.860153	151.9613
8620.000000	90.437500	152.4289
8750.000000	90.111404	153.3368
8850.000000	89.968437	154.0620
9000.000000	89.956512	154.8467
9120.000000	90.147789	154.9230
9250.000000	90.572838	153.6357
9380.000000	91.152206	149.8553
9500.000000	91.668388	143.2567
9620.000000	91.911331	133.1248
9750.000000	91.431923	119.7617
9880.000000	90.062202	107.4480
10000.000000	88.310379	99.6764
10150.000000	86.005653	94.9255
10300.000000	83.870895	94.0099
10440.000000	82.003685	95.1767
10600.000000	80.152786	98.4791
10750.000000	78.659821	102.5952
10900.000000	77.336090	107.4271
11060.000000	76.117561	113.3380
11200.000000	75.202942	118.5247
11380.000000	74.255577	125.4307
11500.000000	73.700951	130.4768
11720.000000	72.940826	139.0814
11800.000000	72.802063	142.4838
12060.000000	72.386673	152.1739
12200.000000	72.459785	157.8144
12410.000000	72.599365	163.5937
12500.000000	72.835091	166.2737
12650.000000	73.255623	169.4521
12800.000000	73.845436	171.6647
13150.000000	75.309433	170.3278
13200.000000	75.493774	169.3191
13400.000000	75.985847	163.4371
13600.000000	75.868149	156.0134
13800.000000	75.257202	150.1803
14000.000000	74.396896	146.6384
14300.000000	73.191620	145.8865
14500.000000	72.769196	146.9145
14750.000000	72.853378	146.5508
15000.000000	73.204247	140.7750
15250.000000	73.014557	127.9462
15500.000000	71.355270	112.6752
15750.000000	68.587059	102.6393
16000.000000	65.637436	100.9838
16250.000000	63.124313	103.9131
16500.000000	61.153839	106.9685
16750.000000	59.448254	113.4500
17000.000000	58.204948	114.7883
17250.000000	57.270363	117.5814
17500.000000	55.650032	120.2178
17750.000000	54.030418	115.7319
18000.000000	52.958290	109.2187
18250.000000	51.236328	103.1192
18500.000000	49.306267	94.3015
18750.000000	45.210064	99.5213
19000.000000	44.191925	87.3268
19250.000000	41.317596	80.5964
19500.000000	33.772446	65.1247
19750.000000	25.282000	36.0696
