* Measurement data measured by REW V5.20 Beta 60
* Source: Headset (USB-C to 3.5mm Headphone Jack Adapter), MICROPHONE (Master Volume), R, volume: 0.258
* Format: 256k Log Swept Sine, 1 sweep at -12.0 dBFS with no timing reference
* Dated: Mar 3, 2021 3:50:55 PM
* REW Settings:
*  C-weighting compensation: Off
*  Target level: 75.0 dB
* Note: ; 
* Measurement: HA-FW10000 R
* Smoothing: None
* Frequency Step: 1/48 octave
* Start Frequency: 20.000 Hz
*
* Freq(Hz)	SPL(dB)	Phase(degrees)
20.000000	78.957146	-131.1656
20.299999	79.050858	-131.4011
20.600000	79.121590	-131.6733
20.900000	79.176247	-131.8718
21.200001	79.240982	-131.9776
21.400000	79.299408	-132.0589
21.799999	79.448608	-132.4441
22.000000	79.529961	-132.8400
22.400000	79.668747	-134.1338
22.700001	79.714729	-135.3671
23.000000	79.697845	-136.5712
23.299999	79.638496	-137.5267
23.600000	79.567024	-138.1275
24.000000	79.507675	-138.4507
24.299999	79.516571	-138.5850
24.700001	79.585350	-138.9560
25.000000	79.646507	-139.4703
25.400000	79.705200	-140.3576
25.799999	79.729019	-141.1652
26.200001	79.750229	-141.7555
26.500000	79.782532	-142.1292
26.900000	79.841888	-142.6853
27.200001	79.880371	-143.2024
27.600000	79.897865	-143.9125
28.000000	79.873428	-144.3532
28.500000	79.855560	-144.2635
29.000000	79.945801	-143.8401
29.500000	80.132217	-143.9170
30.000000	80.284866	-144.7469
30.400000	80.325012	-145.5669
30.700001	80.313400	-145.9970
31.100000	80.291023	-146.1907
31.500000	80.307114	-146.1213
32.000000	80.387642	-146.1607
32.500000	80.469109	-146.6199
33.000000	80.494484	-147.1685
33.500000	80.492111	-147.4609
34.000000	80.514084	-147.5825
34.500000	80.560745	-147.8532
35.000000	80.589401	-148.2589
35.500000	80.599754	-148.5845
36.000000	80.620934	-148.8306
36.500000	80.647697	-149.2053
37.000000	80.645042	-149.6116
37.500000	80.628868	-149.7177
38.200001	80.710129	-149.5276
38.700001	80.841385	-149.9334
39.500000	80.910225	-151.5468
40.000000	80.845154	-152.0708
40.599998	80.822556	-151.8990
41.200001	80.922913	-151.9408
41.799999	80.999718	-152.6550
42.500000	80.964249	-153.2710
43.099998	80.950546	-153.1307
43.700001	81.013443	-153.0259
44.400002	81.089828	-153.3860
45.000000	81.109116	-153.7770
45.500000	81.113663	-153.9919
46.200001	81.127213	-154.2069
46.799999	81.142578	-154.4344
47.500000	81.149734	-154.6906
48.200001	81.168259	-154.7477
48.700001	81.218903	-154.8151
49.400002	81.304192	-155.3571
50.000000	81.303596	-155.9882
50.799999	81.275146	-156.0175
51.500000	81.409149	-155.8901
52.200001	81.558334	-157.1528
53.000000	81.406921	-159.1078
53.799999	81.078362	-158.6489
54.500000	81.062599	-156.8339
55.200001	81.277313	-156.1872
56.000000	81.443047	-157.0288
57.000000	81.455795	-158.2695
58.000000	81.313583	-158.9480
59.000000	81.303299	-157.6258
60.000000	81.601395	-158.4729
60.799999	81.455620	-159.6879
61.500000	81.387138	-158.4643
62.200001	81.654602	-158.2095
63.000000	81.687729	-160.3896
64.000000	81.327065	-159.3956
65.000000	81.713509	-157.9088
66.000000	81.832169	-160.5481
67.000000	81.582535	-160.9767
68.000000	81.590378	-160.4414
69.000000	81.619492	-160.9574
70.000000	81.529427	-161.2467
71.000000	81.494797	-160.8354
72.000000	81.566788	-160.6562
73.000000	81.654327	-161.2031
74.000000	81.634712	-161.8801
75.000000	81.649063	-161.8602
76.199997	81.709053	-162.5542
77.500000	81.610649	-162.3384
78.800003	81.746750	-161.6680
80.000000	81.758995	-162.2181
81.199997	81.765549	-161.8590
82.500000	81.771629	-162.7856
83.800003	81.710892	-162.5910
85.000000	81.761436	-163.1548
86.199997	81.772758	-163.1494
87.500000	81.809334	-163.8325
88.500000	81.722992	-163.3633
90.000000	81.913666	-162.8879
91.199997	81.869118	-163.8427
92.500000	81.809998	-163.4502
93.800003	81.869484	-163.8744
95.000000	81.885727	-164.0569
96.199997	81.921394	-164.6271
97.500000	81.878929	-164.5404
98.800003	81.880318	-164.5462
100.000000	81.837402	-164.1155
101.500000	81.877914	-164.0811
103.000000	81.970306	-164.3814
104.400002	81.854599	-166.1053
106.000000	81.822235	-164.7225
107.500000	81.915207	-165.7693
109.000000	81.870300	-165.7770
110.599998	81.798035	-165.6751
112.000000	81.856628	-165.2662
113.800003	81.941498	-164.8435
115.000000	82.037964	-165.3852
117.199997	82.020691	-166.5233
118.000000	81.903442	-166.4453
120.599998	81.898552	-167.2742
122.000000	81.738899	-166.8509
124.099998	82.062515	-164.5834
125.000000	82.273056	-165.5427
126.500000	82.104927	-166.2871
128.000000	82.020172	-166.2541
131.500000	81.936142	-167.7031
132.000000	81.857864	-167.9680
134.000000	81.931503	-167.4906
136.000000	81.799911	-167.0658
138.000000	81.979889	-166.4233
140.000000	81.850090	-168.0210
143.000000	81.677254	-167.1512
145.000000	81.670906	-167.3922
147.500000	82.020615	-168.3581
150.000000	81.913681	-168.0189
152.500000	81.819031	-167.7036
155.000000	81.728432	-167.7735
157.500000	81.680183	-167.8963
160.000000	81.627754	-168.2723
162.500000	81.975838	-168.8452
165.000000	82.199509	-168.3283
167.500000	82.097755	-167.9953
170.000000	81.802063	-168.7538
172.500000	81.786263	-169.3395
175.000000	81.842522	-168.7054
177.500000	81.827454	-168.9871
180.000000	81.718430	-169.4613
182.500000	81.574448	-168.9242
185.000000	81.659325	-169.1898
187.500000	81.646568	-169.2651
190.000000	81.688683	-169.0266
192.500000	81.645355	-168.1667
195.000000	81.449005	-169.1241
197.500000	81.602844	-169.2667
200.000000	81.523148	-169.0483
203.000000	81.438507	-168.8348
206.000000	81.446945	-169.1106
209.000000	81.377869	-168.5050
212.000000	81.461502	-169.0767
214.000000	81.387215	-168.6990
218.000000	81.342545	-168.5756
220.000000	81.303009	-168.8307
224.000000	81.452736	-167.9328
227.000000	81.400482	-168.0357
230.000000	81.292030	-168.5081
233.000000	81.443176	-169.6244
236.000000	81.265381	-168.7141
240.000000	81.248299	-167.9648
243.000000	81.107498	-168.9596
247.000000	81.203568	-169.1573
250.000000	81.044861	-168.9569
254.000000	81.032669	-169.4162
258.000000	81.068527	-168.7446
262.000000	80.937561	-167.9928
265.000000	80.840927	-168.8243
269.000000	80.855202	-169.2800
272.000000	80.864990	-168.1314
276.000000	80.592323	-168.8868
280.000000	80.842567	-168.1392
285.000000	80.634827	-168.2914
290.000000	80.625526	-168.6518
295.000000	80.483749	-167.0340
300.000000	80.268646	-167.6246
304.000000	80.419716	-167.7793
307.000000	80.321892	-167.0085
311.000000	80.218422	-166.5399
315.000000	80.148201	-166.3753
320.000000	80.055908	-166.7131
325.000000	80.007477	-165.8380
330.000000	80.008408	-165.3283
335.000000	79.919586	-164.9020
340.000000	79.897446	-164.1114
345.000000	79.563316	-164.4735
350.000000	79.644714	-164.6080
355.000000	79.588593	-163.0453
360.000000	79.492653	-163.4976
365.000000	79.450195	-161.9142
370.000000	79.296860	-161.6928
375.000000	79.340630	-161.1730
382.000000	79.322678	-160.7319
387.000000	79.091568	-159.4241
395.000000	79.079361	-158.0721
400.000000	79.109123	-158.4762
406.000000	78.971146	-158.6307
412.000000	78.754593	-155.6463
418.000000	78.777039	-156.2090
425.000000	78.812943	-155.2287
431.000000	78.559319	-154.7490
437.000000	78.864532	-152.4323
444.000000	78.699379	-152.8944
450.000000	78.620766	-151.3208
455.000000	78.458710	-151.1122
462.000000	78.620407	-150.5122
468.000000	78.305992	-150.3999
475.000000	78.421829	-147.6006
482.000000	78.361313	-148.0756
487.000000	78.321312	-146.6564
494.000000	78.302841	-145.9547
500.000000	78.362076	-145.3164
508.000000	78.408386	-144.0128
515.000000	78.416611	-143.8141
522.000000	78.229668	-141.6239
530.000000	78.331810	-140.4865
538.000000	78.376350	-139.5992
545.000000	78.262451	-139.5158
552.000000	78.233879	-137.3979
560.000000	78.203789	-137.3166
570.000000	78.223114	-136.2521
580.000000	78.249413	-134.4022
590.000000	78.372322	-132.9700
600.000000	78.232475	-132.2191
608.000000	78.300919	-129.8644
615.000000	78.285522	-128.8538
622.000000	78.356277	-128.4430
630.000000	78.268784	-128.0072
640.000000	78.339211	-126.2888
650.000000	78.492790	-124.8096
660.000000	78.370697	-124.4195
670.000000	78.552071	-122.9429
680.000000	78.535698	-121.8676
690.000000	78.645058	-120.5816
700.000000	78.588211	-119.3307
710.000000	78.658791	-118.4803
720.000000	78.677170	-116.3452
730.000000	78.761887	-115.5859
740.000000	78.743782	-114.0905
750.000000	78.702904	-113.3861
762.000000	78.938110	-111.7719
775.000000	79.005745	-109.9435
788.000000	79.105751	-108.2784
800.000000	79.206207	-107.4633
812.000000	79.234726	-106.2917
825.000000	79.277260	-104.9124
838.000000	79.289619	-103.6372
850.000000	79.410629	-102.3878
862.000000	79.553993	-101.1850
875.000000	79.650726	-99.6915
885.000000	79.742233	-99.2072
900.000000	79.952354	-96.9699
912.000000	79.977036	-95.9620
925.000000	80.156960	-95.0086
938.000000	80.231850	-93.6055
950.000000	80.426514	-92.7022
962.000000	80.534706	-91.7903
975.000000	80.635788	-90.7395
988.000000	80.800621	-90.1842
1000.000000	81.005905	-89.5976
1015.000000	81.008369	-88.8542
1030.000000	81.105064	-88.8065
1044.000000	81.124115	-88.3286
1060.000000	81.136230	-88.0313
1075.000000	80.964012	-87.4648
1090.000000	80.799667	-85.5512
1106.000000	80.818810	-82.5944
1120.000000	80.821236	-80.2599
1138.000000	81.039146	-77.5579
1150.000000	81.184029	-76.0788
1172.000000	81.586975	-73.0885
1180.000000	81.704994	-72.8459
1206.000000	82.125984	-71.1156
1220.000000	82.309181	-69.9426
1241.000000	82.712776	-68.8610
1250.000000	82.821388	-68.4425
1265.000000	83.030579	-67.7652
1280.000000	83.207291	-66.7995
1315.000000	83.529755	-65.2895
1320.000000	83.589119	-65.3117
1340.000000	83.929276	-64.4637
1360.000000	84.074768	-63.6376
1380.000000	84.275536	-62.6164
1400.000000	84.518120	-62.1699
1430.000000	84.864075	-60.8929
1450.000000	85.064926	-59.3703
1475.000000	85.319839	-58.7119
1500.000000	85.561821	-58.2653
1525.000000	85.835648	-57.0080
1550.000000	86.088646	-57.0308
1575.000000	86.295517	-55.3446
1600.000000	86.604988	-55.0570
1625.000000	86.864471	-53.9953
1650.000000	87.044785	-53.3544
1675.000000	87.392059	-52.9683
1700.000000	87.666115	-52.0329
1725.000000	87.968819	-51.7391
1750.000000	88.198517	-51.3470
1775.000000	88.472321	-51.0036
1800.000000	88.721764	-50.5841
1825.000000	89.026947	-50.7956
1850.000000	89.295204	-50.8177
1875.000000	89.546432	-50.6692
1900.000000	89.789627	-50.8797
1925.000000	90.046997	-51.1651
1950.000000	90.285599	-51.3816
1975.000000	90.507370	-51.8634
2000.000000	90.669220	-52.7360
2030.000000	90.955620	-53.1270
2060.000000	91.195908	-53.9733
2090.000000	91.378021	-54.6905
2120.000000	91.540077	-55.7759
2140.000000	91.638275	-56.3385
2180.000000	91.771278	-57.7236
2200.000000	91.841545	-58.0865
2240.000000	91.908936	-59.6695
2270.000000	91.935623	-60.9769
2300.000000	91.935478	-62.4083
2330.000000	91.928329	-63.6337
2360.000000	91.883202	-64.6212
2400.000000	91.815590	-65.6589
2430.000000	91.740372	-66.0868
2470.000000	91.638252	-66.3236
2500.000000	91.560005	-66.4118
2540.000000	91.456383	-66.2920
2580.000000	91.344025	-65.9836
2620.000000	91.238838	-65.5514
2650.000000	91.201210	-65.1963
2690.000000	91.117065	-64.4233
2720.000000	91.064987	-63.9172
2760.000000	91.022247	-63.0703
2800.000000	90.986526	-62.3114
2850.000000	90.932411	-61.2505
2900.000000	90.913101	-60.2134
2950.000000	90.930130	-59.0860
3000.000000	90.956192	-57.7753
3040.000000	90.980301	-57.3727
3070.000000	91.016579	-56.8667
3110.000000	91.051315	-56.2617
3150.000000	91.109451	-55.7429
3200.000000	91.170738	-55.0465
3250.000000	91.244728	-54.6522
3300.000000	91.314148	-54.3070
3350.000000	91.391304	-54.1092
3400.000000	91.440369	-54.0300
3450.000000	91.481216	-54.1365
3500.000000	91.536324	-54.2000
3550.000000	91.568726	-54.4680
3600.000000	91.583740	-54.6735
3650.000000	91.565933	-54.9832
3700.000000	91.542740	-55.1555
3750.000000	91.493149	-55.4657
3820.000000	91.396965	-55.6428
3870.000000	91.300323	-55.7703
3950.000000	91.121765	-55.8549
4000.000000	90.976898	-55.8643
4060.000000	90.842606	-55.4625
4120.000000	90.697777	-55.2117
4180.000000	90.536942	-54.8380
4250.000000	90.362564	-54.1962
4310.000000	90.198715	-53.5718
4370.000000	90.037506	-53.0374
4440.000000	89.865677	-52.1609
4500.000000	89.715607	-51.4089
4550.000000	89.609207	-50.6847
4620.000000	89.446793	-49.7250
4680.000000	89.325890	-48.7940
4750.000000	89.184319	-47.7684
4820.000000	89.057617	-46.6950
4870.000000	88.965523	-45.9578
4940.000000	88.860184	-44.9580
5000.000000	88.753548	-44.1845
5080.000000	88.635269	-42.8897
5150.000000	88.531708	-41.8769
5220.000000	88.427437	-40.8296
5300.000000	88.304108	-39.7468
5380.000000	88.164948	-38.7067
5450.000000	88.046913	-37.6942
5520.000000	87.884888	-36.6873
5600.000000	87.684204	-35.6592
5700.000000	87.449020	-34.1531
5800.000000	87.181473	-32.5597
5900.000000	86.916618	-30.8845
6000.000000	86.653885	-29.1195
6080.000000	86.454498	-27.4964
6150.000000	86.297752	-25.9716
6220.000000	86.140099	-24.5708
6300.000000	85.962967	-22.6591
6400.000000	85.779060	-20.2997
6500.000000	85.611633	-17.6458
6600.000000	85.476242	-14.8086
6700.000000	85.409912	-12.0479
6800.000000	85.354385	-8.8643
6900.000000	85.367126	-5.8973
7000.000000	85.439522	-2.2799
7100.000000	85.877563	1.4160
7200.000000	86.183861	2.4221
7300.000000	86.545563	4.9619
7400.000000	86.958466	6.0576
7500.000000	87.352592	6.6181
7620.000000	87.890717	6.6558
7750.000000	88.419487	5.3393
7880.000000	88.836807	2.4084
8000.000000	89.034828	-1.5028
8120.000000	89.014053	-6.0998
8250.000000	88.673843	-10.9925
8380.000000	88.074066	-15.0816
8500.000000	87.379395	-17.6332
8620.000000	86.602859	-19.2056
8750.000000	85.707047	-19.5822
8850.000000	85.070007	-19.3936
9000.000000	84.129845	-17.8968
9120.000000	83.455856	-16.3023
9250.000000	82.846771	-14.1905
9380.000000	82.285522	-12.4561
9500.000000	81.785522	-11.1414
9620.000000	81.310829	-9.4482
9750.000000	80.802406	-8.2360
9880.000000	80.292809	-6.6563
10000.000000	79.801979	-5.2463
10150.000000	79.201004	-3.5342
10300.000000	78.557129	-1.4826
10440.000000	77.918488	0.3955
10600.000000	77.194901	2.5369
10750.000000	76.514725	5.9437
10900.000000	75.926163	9.0381
11060.000000	75.267464	12.5306
11200.000000	74.670105	16.3515
11380.000000	74.136169	20.8186
11500.000000	73.755066	24.8438
11720.000000	73.208679	30.9118
11800.000000	72.992317	33.0695
12060.000000	72.602753	41.2212
12200.000000	72.452232	46.6402
12410.000000	72.424316	52.2686
12500.000000	72.481880	54.4899
12650.000000	72.621910	58.6184
12800.000000	72.702255	63.4032
13150.000000	73.474007	73.0598
13200.000000	73.598320	74.6179
13400.000000	74.157494	78.8292
13600.000000	75.037201	83.2707
13800.000000	75.856987	86.3839
14000.000000	77.238083	88.7848
14300.000000	79.628845	88.5900
14500.000000	81.730804	83.1691
14750.000000	84.358368	65.3681
15000.000000	84.687851	34.6348
15250.000000	82.289726	12.1472
15500.000000	79.593399	2.9534
15750.000000	77.484566	-0.4428
16000.000000	75.848198	-1.3795
16250.000000	74.576797	-1.2379
16500.000000	73.801018	-0.9723
16750.000000	73.312019	-1.2900
17000.000000	73.113976	-2.3292
17250.000000	73.271729	-5.7165
17500.000000	73.432358	-11.2726
17750.000000	73.751831	-20.4850
18000.000000	73.814850	-35.7856
18250.000000	73.779114	-53.0159
18500.000000	73.583992	-71.2798
18750.000000	73.222130	-88.0300
19000.000000	72.998634	-104.7323
19250.000000	72.716843	-123.1131
19500.000000	72.278244	-144.1901
19750.000000	71.664062	-169.4787
