* Measurement data measured by REW V5.20 Beta 60
* Source: Headset (USB-C to 3.5mm Headphone Jack Adapter), MICROPHONE (Master Volume), R, volume: 0.258
* Format: 256k Log Swept Sine, 1 sweep at -12.0 dBFS with no timing reference
* Dated: Mar 12, 2021 5:22:11 PM
* REW Settings:
*  C-weighting compensation: Off
*  Target level: 75.0 dB
* Note: ; 
* Measurement: Vision Ears VE6 X2 L
* Smoothing: None
* Frequency Step: 1/48 octave
* Start Frequency: 20.000 Hz
*
* Freq(Hz)	SPL(dB)	Phase(degrees)
20.000000	90.490952	27.3463
20.299999	90.678360	26.9607
20.600000	90.838570	26.0200
20.900000	90.927422	24.7273
21.200001	90.931824	23.3983
21.400000	90.896088	22.6765
21.799999	90.777573	21.7933
22.000000	90.722389	21.6384
22.400000	90.673203	21.6852
22.700001	90.694160	21.7740
23.000000	90.747330	21.6869
23.299999	90.807816	21.3859
23.600000	90.857208	20.9479
24.000000	90.895706	20.3008
24.299999	90.911652	19.8476
24.700001	90.926346	19.3147
25.000000	90.934929	18.9540
25.400000	90.944183	18.5192
25.799999	90.952103	18.2126
26.200001	90.977898	18.0203
26.500000	91.018105	17.8624
26.900000	91.090103	17.4973
27.200001	91.139755	17.0429
27.600000	91.171158	16.2696
28.000000	91.145554	15.5699
28.500000	91.076172	15.1770
29.000000	91.055313	15.2948
29.500000	91.119888	15.3358
30.000000	91.197769	14.8881
30.400000	91.217926	14.3225
30.700001	91.203674	13.9721
31.100000	91.174477	13.7445
31.500000	91.169319	13.7209
32.000000	91.213470	13.6436
32.500000	91.272820	13.2101
33.000000	91.287323	12.5845
33.500000	91.255333	12.1272
34.000000	91.224121	12.0110
34.500000	91.238449	12.0294
35.000000	91.288071	11.9284
35.500000	91.341927	11.6033
36.000000	91.374878	11.1394
36.500000	91.378830	10.6451
37.000000	91.357758	10.2661
37.500000	91.329956	10.0907
38.200001	91.323151	10.1224
38.700001	91.355003	10.0951
39.500000	91.410660	9.6234
40.000000	91.406921	9.2211
40.599998	91.369110	8.9146
41.200001	91.344444	8.8771
41.799999	91.359871	8.8522
42.500000	91.394012	8.5371
43.099998	91.396240	8.1004
43.700001	91.374062	7.7563
44.400002	91.353516	7.5506
45.000000	91.358063	7.4039
45.500000	91.369537	7.2299
46.200001	91.384354	6.9634
46.799999	91.399002	6.7267
47.500000	91.412445	6.4127
48.200001	91.413307	6.1868
48.700001	91.422264	6.0975
49.400002	91.452377	5.9031
50.000000	91.459488	5.6360
50.799999	91.449257	5.4715
51.500000	91.478424	5.4501
52.200001	91.508781	5.1177
53.000000	91.480606	4.8227
53.799999	91.496124	4.8924
54.500000	91.538467	4.4971
55.200001	91.493103	3.9852
56.000000	91.435188	4.2020
57.000000	91.524803	4.1244
58.000000	91.487648	3.3655
59.000000	91.452400	3.5330
60.000000	91.500793	3.2565
60.799999	91.487801	2.9349
61.500000	91.478279	2.7690
62.200001	91.465157	2.6359
63.000000	91.470390	2.6495
64.000000	91.518066	2.2250
65.000000	91.451874	1.7628
66.000000	91.442467	2.0631
67.000000	91.500763	1.7104
68.000000	91.469490	1.2586
69.000000	91.443375	1.1653
70.000000	91.449173	1.0763
71.000000	91.449738	0.8224
72.000000	91.452591	0.7592
73.000000	91.483025	0.4037
74.000000	91.446495	0.1193
75.000000	91.454033	0.0972
76.199997	91.435738	-0.1601
77.500000	91.440269	-0.2585
78.800003	91.398262	-0.3589
80.000000	91.426132	-0.3796
81.199997	91.446289	-0.5869
82.500000	91.471184	-1.3110
83.800003	91.384758	-1.4522
85.000000	91.442825	-1.4128
86.199997	91.396149	-2.0126
87.500000	91.360405	-1.2896
88.500000	91.461655	-1.5364
90.000000	91.383362	-2.0826
91.199997	91.382027	-1.9464
92.500000	91.402618	-2.2880
93.800003	91.378181	-2.3322
95.000000	91.445770	-2.7884
96.199997	91.348839	-2.9922
97.500000	91.436882	-2.9107
98.800003	91.362228	-3.1931
100.000000	91.444557	-3.1190
101.500000	91.370667	-3.6890
103.000000	91.407158	-3.5467
104.400002	91.417542	-4.1079
106.000000	91.344582	-4.1582
107.500000	91.395096	-4.1634
109.000000	91.379852	-4.3038
110.599998	91.460892	-4.5207
112.000000	91.441521	-5.1532
113.800003	91.447701	-5.5104
115.000000	91.389183	-6.0410
117.199997	91.338943	-5.6925
118.000000	91.320541	-5.8193
120.599998	91.297729	-5.4668
122.000000	91.287201	-5.5308
124.099998	91.369774	-6.2610
125.000000	91.285080	-6.4049
126.500000	91.334702	-6.2152
128.000000	91.324448	-6.5928
131.500000	91.289352	-7.0982
132.000000	91.310730	-7.1383
134.000000	91.245811	-7.7402
136.000000	91.253494	-7.5823
138.000000	91.265427	-7.7861
140.000000	91.244652	-8.1372
143.000000	91.211639	-8.5233
145.000000	91.163155	-8.4463
147.500000	91.183464	-8.6867
150.000000	91.154968	-8.9539
152.500000	91.122429	-9.3005
155.000000	91.133560	-9.3744
157.500000	91.133797	-9.6355
160.000000	91.104851	-9.7573
162.500000	91.093254	-10.1613
165.000000	91.090576	-10.3888
167.500000	91.082535	-10.3223
170.000000	91.097427	-10.7609
172.500000	91.049606	-10.8320
175.000000	91.028496	-10.9546
177.500000	91.008621	-11.1100
180.000000	90.983963	-11.4308
182.500000	90.957947	-11.6187
185.000000	90.949097	-11.8440
187.500000	90.927986	-12.1262
190.000000	90.906250	-12.4759
192.500000	90.875618	-12.4940
195.000000	90.848221	-12.6214
197.500000	90.816322	-12.7368
200.000000	90.780540	-12.9839
203.000000	90.758514	-13.2302
206.000000	90.739151	-13.3792
209.000000	90.709000	-13.4696
212.000000	90.670563	-13.6689
214.000000	90.632660	-13.8660
218.000000	90.624817	-14.2188
220.000000	90.616768	-14.3192
224.000000	90.602325	-14.5944
227.000000	90.589317	-14.7162
230.000000	90.561943	-14.8028
233.000000	90.544456	-15.0099
236.000000	90.518890	-15.2083
240.000000	90.512718	-15.4091
243.000000	90.474350	-15.6682
247.000000	90.437210	-15.9154
250.000000	90.434456	-16.0297
254.000000	90.416695	-16.3168
258.000000	90.352600	-16.3435
262.000000	90.347168	-16.8630
265.000000	90.321487	-16.8563
269.000000	90.270088	-17.0132
272.000000	90.254868	-17.2152
276.000000	90.235725	-17.4993
280.000000	90.202797	-17.7196
285.000000	90.175644	-17.9220
290.000000	90.111534	-18.0980
295.000000	90.086365	-18.5128
300.000000	90.044060	-18.7102
304.000000	90.019188	-18.7992
307.000000	89.984947	-18.9485
311.000000	89.973473	-19.2187
315.000000	89.940475	-19.3974
320.000000	89.897789	-19.5389
325.000000	89.862411	-19.7401
330.000000	89.825806	-19.9383
335.000000	89.786537	-20.1166
340.000000	89.749619	-20.3885
345.000000	89.717026	-20.6721
350.000000	89.672104	-20.8735
355.000000	89.645584	-21.0381
360.000000	89.585716	-21.2673
365.000000	89.517670	-21.5536
370.000000	89.502510	-21.8486
375.000000	89.474014	-21.8983
382.000000	89.411591	-22.2241
387.000000	89.375320	-22.4438
395.000000	89.308167	-22.7700
400.000000	89.277702	-22.9320
406.000000	89.214821	-23.1241
412.000000	89.170425	-23.2548
418.000000	89.135895	-23.4711
425.000000	89.089149	-23.6931
431.000000	89.041885	-23.9106
437.000000	89.002319	-24.1216
444.000000	88.948265	-24.1251
450.000000	88.899689	-24.3956
455.000000	88.865646	-24.6093
462.000000	88.816895	-24.8585
468.000000	88.758972	-25.0373
475.000000	88.715668	-25.4106
482.000000	88.656319	-25.5816
487.000000	88.609818	-25.7901
494.000000	88.568146	-25.9993
500.000000	88.532440	-26.1527
508.000000	88.467033	-26.3300
515.000000	88.402710	-26.3455
522.000000	88.356819	-26.4669
530.000000	88.279655	-26.8977
538.000000	88.229767	-26.8745
545.000000	88.164345	-26.9526
552.000000	88.113708	-27.0405
560.000000	88.065834	-27.0697
570.000000	87.989426	-27.1937
580.000000	87.906258	-27.2865
590.000000	87.843773	-27.4452
600.000000	87.770256	-27.5569
608.000000	87.725441	-27.5766
615.000000	87.675507	-27.6644
622.000000	87.635963	-27.7100
630.000000	87.593407	-27.7519
640.000000	87.528168	-27.8530
650.000000	87.471863	-27.9088
660.000000	87.407982	-27.9137
670.000000	87.340004	-28.0440
680.000000	87.281265	-28.1006
690.000000	87.211731	-28.1279
700.000000	87.141548	-28.1322
710.000000	87.072403	-28.1040
720.000000	86.999397	-28.0489
730.000000	86.943779	-27.9692
740.000000	86.881386	-27.9005
750.000000	86.813889	-27.8472
762.000000	86.737251	-27.7054
775.000000	86.657516	-27.5677
788.000000	86.574921	-27.3493
800.000000	86.513489	-27.1438
812.000000	86.432709	-26.8833
825.000000	86.362457	-26.5968
838.000000	86.297714	-26.3195
850.000000	86.241905	-26.0125
862.000000	86.193436	-25.6655
875.000000	86.140350	-25.3368
885.000000	86.100037	-25.0489
900.000000	86.045013	-24.6580
912.000000	86.015266	-24.2660
925.000000	85.985847	-23.8402
938.000000	85.958244	-23.4656
950.000000	85.944016	-23.0682
962.000000	85.927048	-22.6600
975.000000	85.912636	-22.2267
988.000000	85.927856	-21.7930
1000.000000	85.982239	-21.2941
1015.000000	85.908058	-21.0369
1030.000000	85.897232	-20.6581
1044.000000	85.909065	-20.3120
1060.000000	85.927658	-19.9387
1075.000000	85.950317	-19.5847
1090.000000	85.980423	-19.3193
1106.000000	86.020660	-19.0253
1120.000000	86.053513	-18.8535
1138.000000	86.099556	-18.6343
1150.000000	86.124695	-18.5051
1172.000000	86.179855	-18.3383
1180.000000	86.198044	-18.2434
1206.000000	86.252586	-18.1630
1220.000000	86.289589	-18.0423
1241.000000	86.334717	-18.0102
1250.000000	86.356812	-18.0188
1265.000000	86.387917	-17.9882
1280.000000	86.415672	-17.9669
1315.000000	86.471756	-17.9182
1320.000000	86.475388	-17.8777
1340.000000	86.505119	-17.8739
1360.000000	86.527115	-17.7877
1380.000000	86.544434	-17.6814
1400.000000	86.570496	-17.5741
1430.000000	86.593681	-17.3601
1450.000000	86.611938	-17.1551
1475.000000	86.637245	-16.9391
1500.000000	86.659538	-16.6649
1525.000000	86.677185	-16.3692
1550.000000	86.715141	-16.0143
1575.000000	86.752693	-15.6769
1600.000000	86.783989	-15.2680
1625.000000	86.830025	-14.8280
1650.000000	86.874512	-14.4139
1675.000000	86.919319	-13.9575
1700.000000	86.970329	-13.4644
1725.000000	87.028687	-13.0177
1750.000000	87.090210	-12.5495
1775.000000	87.150574	-12.0333
1800.000000	87.210632	-11.5519
1825.000000	87.276779	-11.0632
1850.000000	87.340111	-10.5512
1875.000000	87.413383	-10.0339
1900.000000	87.489632	-9.4607
1925.000000	87.560112	-8.9323
1950.000000	87.636909	-8.2998
1975.000000	87.709488	-7.7406
2000.000000	87.736206	-7.4317
2030.000000	87.929245	-6.3513
2060.000000	88.077164	-5.5222
2090.000000	88.221916	-4.7973
2120.000000	88.378075	-4.1374
2140.000000	88.488480	-3.6984
2180.000000	88.706390	-2.8572
2200.000000	88.828964	-2.4761
2240.000000	89.072815	-1.9807
2270.000000	89.248451	-1.8886
2300.000000	89.435013	-2.0075
2330.000000	89.629539	-2.2508
2360.000000	89.823715	-2.5479
2400.000000	90.088806	-2.7628
2430.000000	90.295784	-2.8159
2470.000000	90.571503	-2.8164
2500.000000	90.776176	-2.9873
2540.000000	91.038612	-3.3305
2580.000000	91.301590	-3.8219
2620.000000	91.543892	-4.4895
2650.000000	91.718979	-5.1240
2690.000000	91.938614	-6.0933
2720.000000	92.089813	-6.8954
2760.000000	92.254288	-8.0850
2800.000000	92.394958	-9.3733
2850.000000	92.517029	-11.0573
2900.000000	92.591568	-12.8472
2950.000000	92.614052	-14.5425
3000.000000	92.583725	-15.8295
3040.000000	92.536118	-17.3063
3070.000000	92.472328	-18.1532
3110.000000	92.382248	-19.0645
3150.000000	92.272018	-19.8131
3200.000000	92.119308	-20.4926
3250.000000	91.963432	-20.9061
3300.000000	91.809303	-21.0681
3350.000000	91.658478	-20.9834
3400.000000	91.523270	-20.7048
3450.000000	91.412292	-20.2589
3500.000000	91.336258	-19.6455
3550.000000	91.282745	-18.8800
3600.000000	91.241486	-18.0553
3650.000000	91.228790	-17.1390
3700.000000	91.238708	-16.2085
3750.000000	91.273491	-15.2270
3820.000000	91.340523	-13.8837
3870.000000	91.414490	-12.9180
3950.000000	91.540741	-11.5467
4000.000000	91.629707	-10.8743
4060.000000	91.813126	-9.7703
4120.000000	91.998306	-9.0625
4180.000000	92.200089	-8.5450
4250.000000	92.459702	-8.1034
4310.000000	92.671692	-8.0972
4370.000000	92.882317	-8.3065
4440.000000	93.108925	-8.8030
4500.000000	93.282211	-9.4111
4550.000000	93.413605	-10.0098
4620.000000	93.565239	-10.9858
4680.000000	93.666351	-11.9425
4750.000000	93.752136	-13.1071
4820.000000	93.798248	-14.3093
4870.000000	93.817062	-15.1890
4940.000000	93.803894	-16.4069
5000.000000	93.756973	-17.4199
5080.000000	93.681931	-18.1565
5150.000000	93.618179	-18.6915
5220.000000	93.564941	-19.1280
5300.000000	93.522324	-19.6910
5380.000000	93.492859	-20.4624
5450.000000	93.446808	-21.3630
5520.000000	93.319618	-22.4555
5600.000000	93.098038	-23.8536
5700.000000	92.674927	-25.3658
5800.000000	92.104660	-26.1605
5900.000000	91.433372	-25.6659
6000.000000	90.761787	-23.6799
6080.000000	90.305832	-21.0121
6150.000000	89.977402	-18.0335
6220.000000	89.760338	-14.3736
6300.000000	89.646843	-9.6842
6400.000000	89.891037	-3.3148
6500.000000	90.592216	1.3943
6600.000000	91.418793	3.1412
6700.000000	92.113251	2.3791
6800.000000	92.585533	0.9587
6900.000000	92.985909	-0.5896
7000.000000	93.391983	-2.5756
7100.000000	93.747971	-5.3212
7200.000000	93.995750	-8.9152
7300.000000	94.066406	-13.2311
7400.000000	93.903709	-17.7572
7500.000000	93.483688	-21.8167
7620.000000	92.728523	-25.1060
7750.000000	91.737579	-25.9518
7880.000000	90.875275	-23.9943
8000.000000	90.319565	-21.3974
8120.000000	89.915581	-18.7016
8250.000000	89.584930	-15.5542
8380.000000	89.391182	-12.2037
8500.000000	89.341202	-9.1058
8620.000000	89.425964	-6.2433
8750.000000	89.628304	-3.6476
8850.000000	89.880180	-2.1286
9000.000000	90.490837	-0.8967
9120.000000	91.081268	-2.5510
9250.000000	91.634003	-6.2636
9380.000000	92.012932	-12.2463
9500.000000	92.054764	-19.3437
9620.000000	91.729202	-26.8983
9750.000000	90.987228	-34.4417
9880.000000	89.973137	-40.4053
10000.000000	88.920715	-44.4845
10150.000000	87.592743	-47.8534
10300.000000	86.270653	-50.0342
10440.000000	84.989532	-51.1089
10600.000000	83.796852	-50.4339
10750.000000	82.666000	-51.9952
10900.000000	81.320976	-52.1148
11060.000000	80.014519	-50.8830
11200.000000	78.813934	-50.1626
11380.000000	77.210190	-47.7467
11500.000000	76.226944	-45.4650
11720.000000	74.461235	-39.9556
11800.000000	73.898788	-38.0302
12060.000000	72.135239	-30.4144
12200.000000	71.195671	-25.8511
12410.000000	70.029411	-19.3082
12500.000000	69.631607	-13.7503
12650.000000	69.066330	-8.7362
12800.000000	68.546677	-2.6918
13150.000000	67.606796	11.1254
13200.000000	67.442871	12.4589
13400.000000	67.206139	20.6844
13600.000000	67.186295	28.5981
13800.000000	67.157768	35.8606
14000.000000	67.499802	42.7829
14300.000000	68.332710	51.0277
14500.000000	69.022285	54.1812
14750.000000	69.992188	57.3111
15000.000000	71.287903	57.1421
15250.000000	72.575775	53.5364
15500.000000	73.958679	46.2974
15750.000000	75.128296	30.5700
16000.000000	74.743256	12.6102
16250.000000	73.914734	0.5513
16500.000000	73.392349	-10.9324
16750.000000	73.080444	-25.3540
17000.000000	72.262665	-45.6590
17250.000000	70.176041	-66.1196
17500.000000	67.629646	-81.6534
17750.000000	64.359146	-95.6306
18000.000000	61.327095	-105.9415
18250.000000	58.566193	-110.6381
18500.000000	56.451710	-116.0073
18750.000000	55.261951	-122.6226
19000.000000	54.976151	-119.5784
19250.000000	53.929886	-127.7781
19500.000000	54.338547	-138.1805
19750.000000	55.084812	-150.9517
