* Measurement data measured by REW V5.20.5
* Source: ヘッドセット (USB-C to 3.5mm Headphone Jack Ad, MICROPHONE (マス?), R, volume: 0.250
* Format: 256k Log Swept Sine, 1 sweep at -12.0 dBFS with no timing reference
* Dated: 2023/06/19 12:24:55
* REW Settings:
*  C-weighting compensation: Off
*  Target level: 75.0 dB
* Note: 
* Measurement: KZ AS24 Auxiliary12 R
* Smoothing: None
* Frequency Step: 1/48 octave
* Start Frequency: 20.000 Hz
*
* Freq(Hz)	SPL(dB)	Phase(degrees)
20.000000	100.999	48.3371
20.299999	101.067	47.5900
20.600000	101.130	46.8914
20.900000	101.188	46.2100
21.200001	101.239	45.5570
21.400000	101.275	45.1504
21.799999	101.349	44.3979
22.000000	101.388	44.0434
22.400000	101.475	43.3504
22.700001	101.546	42.8170
23.000000	101.620	42.2532
23.299999	101.692	41.6480
23.600000	101.761	41.0086
24.000000	101.844	40.1342
24.299999	101.902	39.4905
24.700001	101.968	38.6790
25.000000	102.015	38.1179
25.400000	102.077	37.4202
25.799999	102.140	36.7479
26.200001	102.205	36.0776
26.500000	102.252	35.5721
26.900000	102.307	34.9011
27.200001	102.342	34.4054
27.600000	102.388	33.7603
28.000000	102.432	33.1241
28.500000	102.485	32.3292
29.000000	102.534	31.5557
29.500000	102.580	30.8135
30.000000	102.633	30.0995
30.400000	102.680	29.5017
30.700001	102.715	29.0365
31.100000	102.759	28.3882
31.500000	102.796	27.7330
32.000000	102.835	26.9614
32.500000	102.871	26.2404
33.000000	102.911	25.5496
33.500000	102.955	24.8636
34.000000	102.998	24.1597
34.500000	103.035	23.4888
35.000000	103.071	22.8362
35.500000	103.105	22.2039
36.000000	103.139	21.5879
36.500000	103.172	20.9888
37.000000	103.206	20.3943
37.500000	103.241	19.7850
38.200001	103.283	18.8979
38.700001	103.304	18.2739
39.500000	103.332	17.3378
40.000000	103.350	16.7827
40.599998	103.377	16.1139
41.200001	103.402	15.4261
41.799999	103.423	14.7543
42.500000	103.449	14.0083
43.099998	103.474	13.3501
43.700001	103.489	12.6876
44.400002	103.500	12.0197
45.000000	103.524	11.4984
45.500000	103.548	10.9963
46.200001	103.561	10.2360
46.799999	103.561	9.7327
47.500000	103.596	9.2245
48.200001	103.645	8.3918
48.700001	103.647	7.6799
49.400002	103.607	6.9636
50.000000	103.601	6.6575
50.799999	103.650	6.0545
51.500000	103.669	5.2565
52.200001	103.661	4.5953
53.000000	103.671	4.0131
53.799999	103.696	3.3505
54.500000	103.711	2.7219
55.200001	103.720	2.0854
56.000000	103.717	1.4195
57.000000	103.724	0.6923
58.000000	103.733	-0.0958
59.000000	103.734	-0.8704
60.000000	103.734	-1.6497
60.799999	103.734	-2.2506
61.500000	103.736	-2.7590
62.200001	103.737	-3.3002
63.000000	103.737	-3.8903
64.000000	103.738	-4.5994
65.000000	103.735	-5.3240
66.000000	103.731	-5.9955
67.000000	103.730	-6.6842
68.000000	103.722	-7.3564
69.000000	103.712	-8.0172
70.000000	103.702	-8.6666
71.000000	103.691	-9.3110
72.000000	103.681	-9.9356
73.000000	103.670	-10.5804
74.000000	103.655	-11.2147
75.000000	103.643	-11.8159
76.199997	103.627	-12.5544
77.500000	103.610	-13.3186
78.800003	103.594	-14.0865
80.000000	103.578	-14.7775
81.199997	103.562	-15.4586
82.500000	103.548	-16.1891
83.800003	103.526	-16.9109
85.000000	103.507	-17.5499
86.199997	103.492	-18.1908
87.500000	103.473	-18.8726
88.500000	103.459	-19.4078
90.000000	103.430	-20.1587
91.199997	103.415	-20.7560
92.500000	103.395	-21.4069
93.800003	103.371	-22.0640
95.000000	103.356	-22.6257
96.199997	103.339	-23.2598
97.500000	103.310	-23.8231
98.800003	103.299	-24.4386
100.000000	103.272	-25.0007
101.500000	103.246	-25.6511
103.000000	103.219	-26.3126
104.400002	103.194	-26.9261
106.000000	103.165	-27.6263
107.500000	103.136	-28.2606
109.000000	103.101	-28.8771
110.599998	103.070	-29.5725
112.000000	103.036	-30.1038
113.800003	103.006	-30.8595
115.000000	102.982	-31.3071
117.199997	102.932	-32.0966
118.000000	102.913	-32.4653
120.599998	102.881	-33.2082
122.000000	102.820	-33.9299
124.099998	102.778	-34.7321
125.000000	102.761	-35.0489
126.500000	102.737	-35.6053
128.000000	102.701	-36.1600
131.500000	102.625	-37.2942
132.000000	102.613	-37.4473
134.000000	102.578	-38.1277
136.000000	102.533	-38.7806
138.000000	102.493	-39.4092
140.000000	102.447	-40.0112
143.000000	102.397	-41.0376
145.000000	102.293	-41.6616
147.500000	102.289	-42.3021
150.000000	102.241	-43.0438
152.500000	102.176	-43.7087
155.000000	102.119	-44.4264
157.500000	102.070	-45.1259
160.000000	102.018	-45.7256
162.500000	101.944	-46.3993
165.000000	101.908	-47.0139
167.500000	101.855	-47.6075
170.000000	101.810	-48.2082
172.500000	101.755	-48.7982
175.000000	101.700	-49.3798
177.500000	101.679	-49.9116
180.000000	101.622	-50.4210
182.500000	101.577	-50.9869
185.000000	101.547	-51.4693
187.500000	101.501	-51.9053
190.000000	101.454	-52.3541
192.500000	101.347	-52.7234
195.000000	101.318	-53.5222
197.500000	101.347	-53.9269
200.000000	101.331	-54.3869
203.000000	101.300	-54.8937
206.000000	101.264	-55.4949
209.000000	101.246	-56.0363
212.000000	101.214	-56.5253
214.000000	101.145	-57.0090
218.000000	101.091	-57.8081
220.000000	101.060	-58.1758
224.000000	100.999	-58.8336
227.000000	100.950	-59.3601
230.000000	100.906	-59.7880
233.000000	100.860	-60.2289
236.000000	100.815	-60.6354
240.000000	100.771	-61.1995
243.000000	100.735	-61.5321
247.000000	100.685	-62.2024
250.000000	100.640	-62.4836
254.000000	100.569	-63.1218
258.000000	100.561	-63.5514
262.000000	100.525	-63.9493
265.000000	100.501	-64.2848
269.000000	100.458	-64.7534
272.000000	100.428	-65.0183
276.000000	100.387	-65.4894
280.000000	100.383	-65.7293
285.000000	100.373	-66.1819
290.000000	100.378	-66.6267
295.000000	100.396	-67.3435
300.000000	100.391	-68.2573
304.000000	100.357	-68.9866
307.000000	100.325	-69.5252
311.000000	100.275	-70.1089
315.000000	100.222	-70.5810
320.000000	100.158	-71.1240
325.000000	100.104	-71.5745
330.000000	100.059	-71.9681
335.000000	100.015	-72.3401
340.000000	99.978	-72.6763
345.000000	99.949	-73.0237
350.000000	99.920	-73.4022
355.000000	99.900	-73.6786
360.000000	99.884	-73.9939
365.000000	99.865	-74.2875
370.000000	99.851	-74.5701
375.000000	99.838	-74.8304
382.000000	99.826	-75.1953
387.000000	99.813	-75.4500
395.000000	99.800	-75.8492
400.000000	99.793	-76.0363
406.000000	99.790	-76.3700
412.000000	99.787	-76.6110
418.000000	99.787	-76.8650
425.000000	99.790	-77.1156
431.000000	99.795	-77.3603
437.000000	99.803	-77.5533
444.000000	99.818	-77.8103
450.000000	99.834	-77.9720
455.000000	99.845	-78.1379
462.000000	99.862	-78.3770
468.000000	99.882	-78.5342
475.000000	99.907	-78.7362
482.000000	99.933	-78.9165
487.000000	99.954	-79.0313
494.000000	99.989	-79.1715
500.000000	100.020	-79.3206
508.000000	100.076	-79.4208
515.000000	100.129	-79.5852
522.000000	100.184	-79.8019
530.000000	100.246	-80.0630
538.000000	100.298	-80.3683
545.000000	100.340	-80.6035
552.000000	100.381	-80.8135
560.000000	100.431	-81.0504
570.000000	100.493	-81.3064
580.000000	100.559	-81.5565
590.000000	100.624	-81.8265
600.000000	100.693	-82.0685
608.000000	100.749	-82.2475
615.000000	100.798	-82.4165
622.000000	100.848	-82.5582
630.000000	100.908	-82.7401
640.000000	100.979	-82.9368
650.000000	101.051	-83.1687
660.000000	101.127	-83.3433
670.000000	101.201	-83.5493
680.000000	101.280	-83.7358
690.000000	101.355	-83.9281
700.000000	101.431	-84.0945
710.000000	101.514	-84.2705
720.000000	101.591	-84.4559
730.000000	101.674	-84.6056
740.000000	101.754	-84.7669
750.000000	101.834	-84.8893
762.000000	101.929	-85.0953
775.000000	102.031	-85.2693
788.000000	102.133	-85.4189
800.000000	102.223	-85.5547
812.000000	102.324	-85.7031
825.000000	102.427	-85.8414
838.000000	102.534	-85.9927
850.000000	102.634	-86.0994
862.000000	102.733	-86.2145
875.000000	102.836	-86.3303
885.000000	102.920	-86.4250
900.000000	103.044	-86.5800
912.000000	103.150	-86.6741
925.000000	103.264	-86.7850
938.000000	103.382	-86.9310
950.000000	103.488	-87.0494
962.000000	103.594	-87.1930
975.000000	103.710	-87.3573
988.000000	103.821	-87.5465
1000.000000	103.897	-87.7567
1015.000000	104.061	-87.9491
1030.000000	104.193	-88.2328
1044.000000	104.323	-88.4928
1060.000000	104.460	-88.8484
1075.000000	104.595	-89.1801
1090.000000	104.707	-89.5584
1106.000000	104.835	-89.9843
1120.000000	104.945	-90.3593
1138.000000	105.077	-90.8933
1150.000000	105.166	-91.2563
1172.000000	105.320	-91.9374
1180.000000	105.374	-92.1857
1206.000000	105.541	-93.0095
1220.000000	105.639	-93.4571
1241.000000	105.790	-94.1320
1250.000000	105.855	-94.4200
1265.000000	105.954	-94.8927
1280.000000	106.053	-95.3627
1315.000000	106.270	-96.4163
1320.000000	106.302	-96.5534
1340.000000	106.415	-97.1246
1360.000000	106.532	-97.6906
1380.000000	106.659	-98.2101
1400.000000	106.777	-98.7004
1430.000000	106.959	-99.4399
1450.000000	107.077	-99.8835
1475.000000	107.220	-100.4169
1500.000000	107.361	-100.9193
1525.000000	107.502	-101.4237
1550.000000	107.621	-101.8903
1575.000000	107.741	-102.3347
1600.000000	107.864	-102.7886
1625.000000	107.985	-103.1880
1650.000000	108.104	-103.5853
1675.000000	108.229	-103.9833
1700.000000	108.353	-104.3851
1725.000000	108.479	-104.7723
1750.000000	108.606	-105.1396
1775.000000	108.736	-105.5272
1800.000000	108.864	-105.9210
1825.000000	108.996	-106.3076
1850.000000	109.128	-106.7042
1875.000000	109.267	-107.1208
1900.000000	109.408	-107.5404
1925.000000	109.547	-107.9821
1950.000000	109.682	-108.4475
1975.000000	109.821	-108.9318
2000.000000	109.960	-109.3673
2030.000000	110.135	-110.1051
2060.000000	110.307	-110.7894
2090.000000	110.482	-111.5330
2120.000000	110.656	-112.3451
2140.000000	110.774	-112.8992
2180.000000	111.008	-114.1299
2200.000000	111.122	-114.7879
2240.000000	111.349	-116.1986
2270.000000	111.514	-117.3457
2300.000000	111.672	-118.5737
2330.000000	111.829	-119.8694
2360.000000	111.975	-121.2480
2400.000000	112.153	-123.1808
2430.000000	112.273	-124.7620
2470.000000	112.411	-126.9276
2500.000000	112.496	-128.6184
2540.000000	112.589	-130.9230
2580.000000	112.648	-133.2787
2620.000000	112.679	-135.6588
2650.000000	112.684	-137.4469
2690.000000	112.662	-139.7738
2720.000000	112.629	-141.4973
2760.000000	112.558	-143.7375
2800.000000	112.464	-145.8640
2850.000000	112.326	-148.4046
2900.000000	112.159	-150.8025
2950.000000	111.974	-152.9835
3000.000000	111.780	-155.0851
3040.000000	111.606	-156.4942
3070.000000	111.474	-157.5445
3110.000000	111.292	-158.8497
3150.000000	111.109	-160.0341
3200.000000	110.868	-161.3481
3250.000000	110.620	-162.5081
3300.000000	110.371	-163.4139
3350.000000	110.119	-164.0922
3400.000000	109.883	-164.4903
3450.000000	109.685	-164.5942
3500.000000	109.538	-164.4965
3550.000000	109.463	-164.4492
3600.000000	109.450	-164.6668
3650.000000	109.455	-165.2502
3700.000000	109.462	-166.2702
3750.000000	109.446	-167.6346
3820.000000	109.351	-169.9460
3870.000000	109.221	-171.7456
3950.000000	108.902	-174.4832
4000.000000	108.643	-175.9535
4060.000000	108.293	-177.3361
4120.000000	107.921	-178.2261
4180.000000	107.556	-178.6634
4250.000000	107.169	-178.7227
4310.000000	106.884	-178.4980
4370.000000	106.635	-178.1701
4440.000000	106.375	-177.7395
4500.000000	106.175	-177.3540
4550.000000	106.027	-176.9107
4620.000000	105.851	-176.1601
4680.000000	105.760	-175.4370
4750.000000	105.724	-174.7606
4820.000000	105.748	-174.5204
4870.000000	105.773	-174.6570
4940.000000	105.793	-175.2833
5000.000000	105.782	-176.1323
5080.000000	105.720	-177.6151
5150.000000	105.607	-179.0142
5220.000000	105.449	179.5748
5300.000000	105.212	178.0522
5380.000000	104.921	176.7650
5450.000000	104.645	175.9011
5520.000000	104.360	175.2283
5600.000000	104.037	174.6912
5700.000000	103.637	174.2911
5800.000000	103.264	174.1693
5900.000000	102.908	174.1744
6000.000000	102.579	174.3411
6080.000000	102.321	174.5021
6150.000000	102.105	174.7180
6220.000000	101.900	174.9609
6300.000000	101.672	175.2585
6400.000000	101.400	175.7133
6500.000000	101.137	176.1350
6600.000000	100.864	176.7103
6700.000000	100.600	177.4681
6800.000000	100.340	178.5851
6900.000000	100.149	-179.8305
7000.000000	100.071	-177.8290
7100.000000	100.095	-175.4228
7200.000000	100.216	-172.7263
7300.000000	100.499	-169.8039
7400.000000	100.957	-167.0922
7500.000000	101.594	-164.9662
7620.000000	102.561	-163.4661
7750.000000	103.954	-163.6765
7880.000000	105.309	-166.4689
8000.000000	106.622	-171.8213
8120.000000	107.846	179.5488
8250.000000	108.835	166.5216
8380.000000	109.159	150.8239
8500.000000	108.759	136.1888
8620.000000	107.804	123.4224
8750.000000	106.373	112.6127
8850.000000	105.168	106.3041
9000.000000	103.341	99.5609
9120.000000	101.923	95.9609
9250.000000	100.442	93.4203
9380.000000	99.041	92.0532
9500.000000	97.809	91.6556
9620.000000	96.645	91.8903
9750.000000	95.462	93.0408
9880.000000	94.352	94.5991
10000.000000	93.363	96.4366
10150.000000	92.205	99.3705
10300.000000	91.091	103.0150
10440.000000	90.117	107.5409
10600.000000	89.062	114.1494
10750.000000	88.348	122.0201
10900.000000	88.037	131.0395
11060.000000	88.316	140.0932
11200.000000	88.931	145.2599
11380.000000	89.706	147.6116
11500.000000	90.044	147.4786
11720.000000	90.222	146.7103
11800.000000	90.208	146.6074
12060.000000	90.050	147.6680
12200.000000	89.941	148.7602
12410.000000	89.927	151.0000
12500.000000	89.961	152.1010
12650.000000	90.087	153.8223
12800.000000	90.293	155.5645
13150.000000	91.145	158.5916
13200.000000	91.313	158.8431
13400.000000	92.106	159.0385
13600.000000	93.117	157.5714
13800.000000	94.329	153.2082
14000.000000	95.536	145.0196
14300.000000	96.213	128.2563
14500.000000	96.015	119.5988
14750.000000	95.832	112.1619
15000.000000	95.976	105.5256
15250.000000	96.371	97.5289
15500.000000	96.900	86.7465
15750.000000	97.154	72.3129
16000.000000	96.724	55.2039
16250.000000	95.424	39.6097
16500.000000	93.726	28.2011
16750.000000	92.033	20.7006
17000.000000	90.729	15.1808
17250.000000	89.668	9.1931
17500.000000	88.763	2.3088
17750.000000	87.962	-6.4572
18000.000000	86.908	-17.9740
18250.000000	85.342	-29.3506
18500.000000	83.175	-37.7986
18750.000000	81.310	-25.5721
19000.000000	85.909	-23.6492
19250.000000	89.106	-67.0082
19500.000000	87.631	-107.3950
19750.000000	86.140	-140.3638
