* Measurement data measured by REW V5.20.5
* Source: ヘッドセット (USB-C to 3.5mm Headphone Jack Ad, MICROPHONE (マス?), R, volume: 0.250
* Format: 256k Log Swept Sine, 1 sweep at -12.0 dBFS with no timing reference
* Dated: 2023/06/19 12:58:48
* REW Settings:
*  C-weighting compensation: Off
*  Target level: 75.0 dB
* Note: 
* Measurement: KZ PR2 form R
* Smoothing: None
* Frequency Step: 1/48 octave
* Start Frequency: 20.000 Hz
*
* Freq(Hz)	SPL(dB)	Phase(degrees)
20.000000	109.124	30.3373
20.299999	109.147	29.4561
20.600000	109.167	28.6364
20.900000	109.186	27.8341
21.200001	109.200	27.0428
21.400000	109.211	26.5273
21.799999	109.231	25.5192
22.000000	109.240	25.0249
22.400000	109.256	24.0553
22.700001	109.266	23.3446
23.000000	109.275	22.6509
23.299999	109.283	21.9666
23.600000	109.291	21.2897
24.000000	109.302	20.4010
24.299999	109.312	19.7454
24.700001	109.323	18.8877
25.000000	109.329	18.2628
25.400000	109.335	17.4508
25.799999	109.341	16.6543
26.200001	109.346	15.8684
26.500000	109.348	15.2833
26.900000	109.345	14.5107
27.200001	109.337	13.9398
27.600000	109.323	13.1992
28.000000	109.308	12.4852
28.500000	109.288	11.6257
29.000000	109.269	10.7978
29.500000	109.250	9.9742
30.000000	109.230	9.1601
30.400000	109.213	8.5112
30.700001	109.198	8.0448
31.100000	109.178	7.4426
31.500000	109.159	6.8567
32.000000	109.137	6.1399
32.500000	109.112	5.4147
33.000000	109.082	4.7135
33.500000	109.055	4.0605
34.000000	109.033	3.4105
34.500000	109.007	2.7614
35.000000	108.976	2.1082
35.500000	108.937	1.5223
36.000000	108.904	1.0217
36.500000	108.885	0.5308
37.000000	108.872	-0.0468
37.500000	108.849	-0.7037
38.200001	108.788	-1.5613
38.700001	108.742	-2.0494
39.500000	108.686	-2.7946
40.000000	108.652	-3.3058
40.599998	108.606	-3.9172
41.200001	108.556	-4.5006
41.799999	108.504	-5.0627
42.500000	108.439	-5.6423
43.099998	108.393	-6.0610
43.700001	108.359	-6.5081
44.400002	108.318	-7.1252
45.000000	108.271	-7.6520
45.500000	108.228	-8.0359
46.200001	108.173	-8.5300
46.799999	108.130	-8.9529
47.500000	108.079	-9.4426
48.200001	108.028	-9.9457
48.700001	107.988	-10.2939
49.400002	107.928	-10.7313
50.000000	107.882	-11.0472
50.799999	107.829	-11.5055
51.500000	107.777	-11.9355
52.200001	107.722	-12.3297
53.000000	107.662	-12.7727
53.799999	107.596	-13.2007
54.500000	107.538	-13.5045
55.200001	107.493	-13.8118
56.000000	107.438	-14.2205
57.000000	107.362	-14.7087
58.000000	107.284	-15.1287
59.000000	107.212	-15.5273
60.000000	107.137	-15.9559
60.799999	107.074	-16.2511
61.500000	107.024	-16.4637
62.200001	106.978	-16.7173
63.000000	106.922	-17.0062
64.000000	106.853	-17.3168
65.000000	106.783	-17.6505
66.000000	106.711	-17.9323
67.000000	106.646	-18.2433
68.000000	106.569	-18.5247
69.000000	106.495	-18.7560
70.000000	106.423	-18.9929
71.000000	106.354	-19.2075
72.000000	106.285	-19.4495
73.000000	106.211	-19.6562
74.000000	106.144	-19.8387
75.000000	106.078	-20.0396
76.199997	105.999	-20.2615
77.500000	105.913	-20.4869
78.800003	105.833	-20.6932
80.000000	105.755	-20.8657
81.199997	105.687	-21.0145
82.500000	105.609	-21.2001
83.800003	105.530	-21.3481
85.000000	105.459	-21.4933
86.199997	105.388	-21.6177
87.500000	105.321	-21.7334
88.500000	105.262	-21.8408
90.000000	105.191	-21.9244
91.199997	105.118	-22.0697
92.500000	105.053	-22.0638
93.800003	104.981	-22.1758
95.000000	104.922	-22.1824
96.199997	104.869	-22.2668
97.500000	104.795	-22.3370
98.800003	104.742	-22.2825
100.000000	104.693	-22.4371
101.500000	104.608	-22.4249
103.000000	104.538	-22.4681
104.400002	104.475	-22.4550
106.000000	104.398	-22.4890
107.500000	104.333	-22.4771
109.000000	104.268	-22.4763
110.599998	104.201	-22.4688
112.000000	104.139	-22.4955
113.800003	104.064	-22.4291
115.000000	104.015	-22.3511
117.199997	103.920	-22.2410
118.000000	103.886	-22.2852
120.599998	103.817	-21.9115
122.000000	103.722	-22.1066
124.099998	103.645	-22.0595
125.000000	103.614	-22.0345
126.500000	103.561	-22.0277
128.000000	103.505	-22.0107
131.500000	103.391	-21.7238
132.000000	103.377	-21.6871
134.000000	103.311	-21.5988
136.000000	103.231	-21.3749
138.000000	103.180	-21.3527
140.000000	103.103	-21.1403
143.000000	103.007	-20.5255
145.000000	103.006	-20.8894
147.500000	102.887	-20.6412
150.000000	102.796	-20.5386
152.500000	102.749	-20.2931
155.000000	102.679	-20.0582
157.500000	102.608	-19.9543
160.000000	102.549	-19.7488
162.500000	102.483	-19.4700
165.000000	102.426	-19.3645
167.500000	102.355	-19.0852
170.000000	102.305	-18.9196
172.500000	102.253	-18.6591
175.000000	102.184	-18.3894
177.500000	102.156	-18.2136
180.000000	102.097	-18.0300
182.500000	102.047	-17.7900
185.000000	101.993	-17.5536
187.500000	101.950	-17.2920
190.000000	101.911	-17.0723
192.500000	101.853	-16.6119
195.000000	101.798	-16.2481
197.500000	101.771	-16.3243
200.000000	101.752	-16.3650
203.000000	101.700	-15.8177
206.000000	101.652	-15.4894
209.000000	101.627	-15.2609
212.000000	101.595	-15.2734
214.000000	101.544	-14.7643
218.000000	101.477	-14.3296
220.000000	101.439	-14.1332
224.000000	101.389	-13.7560
227.000000	101.357	-13.4895
230.000000	101.306	-13.2178
233.000000	101.287	-12.8788
236.000000	101.238	-12.5607
240.000000	101.197	-12.1208
243.000000	101.155	-11.7964
247.000000	101.120	-11.4669
250.000000	101.106	-11.2509
254.000000	101.054	-10.6920
258.000000	101.019	-10.3875
262.000000	100.999	-9.9685
265.000000	100.964	-9.5654
269.000000	100.930	-9.2728
272.000000	100.921	-9.0240
276.000000	100.883	-8.6080
280.000000	100.864	-8.2091
285.000000	100.827	-7.7750
290.000000	100.797	-7.3333
295.000000	100.769	-6.9653
300.000000	100.740	-6.5968
304.000000	100.715	-6.1696
307.000000	100.696	-5.9626
311.000000	100.679	-5.6711
315.000000	100.652	-5.3439
320.000000	100.620	-4.9828
325.000000	100.592	-4.6238
330.000000	100.561	-4.2146
335.000000	100.541	-3.8413
340.000000	100.506	-3.4202
345.000000	100.479	-3.0304
350.000000	100.476	-2.6339
355.000000	100.435	-2.2267
360.000000	100.416	-1.8655
365.000000	100.394	-1.4543
370.000000	100.379	-1.0546
375.000000	100.360	-0.6390
382.000000	100.332	-0.0980
387.000000	100.312	0.2978
395.000000	100.281	0.9324
400.000000	100.251	1.3181
406.000000	100.238	1.7827
412.000000	100.220	2.2561
418.000000	100.202	2.7385
425.000000	100.187	3.2697
431.000000	100.169	3.7264
437.000000	100.154	4.2003
444.000000	100.141	4.7296
450.000000	100.121	5.1742
455.000000	100.117	5.5679
462.000000	100.104	6.1125
468.000000	100.096	6.5526
475.000000	100.085	7.1039
482.000000	100.076	7.6194
487.000000	100.070	8.0004
494.000000	100.065	8.5251
500.000000	100.065	8.9657
508.000000	100.054	9.5610
515.000000	100.050	10.0812
522.000000	100.045	10.5986
530.000000	100.043	11.1654
538.000000	100.044	11.7506
545.000000	100.040	12.2832
552.000000	100.040	12.7650
560.000000	100.038	13.3433
570.000000	100.039	14.0814
580.000000	100.044	14.8009
590.000000	100.045	15.5231
600.000000	100.046	16.2517
608.000000	100.054	16.8416
615.000000	100.060	17.3194
622.000000	100.067	17.8293
630.000000	100.071	18.3824
640.000000	100.087	19.1196
650.000000	100.095	19.8687
660.000000	100.111	20.5464
670.000000	100.127	21.2595
680.000000	100.146	21.9617
690.000000	100.166	22.6608
700.000000	100.188	23.4022
710.000000	100.214	24.0838
720.000000	100.239	24.7769
730.000000	100.271	25.5150
740.000000	100.294	26.2261
750.000000	100.333	26.9182
762.000000	100.366	27.7365
775.000000	100.414	28.6375
788.000000	100.455	29.5520
800.000000	100.495	30.4266
812.000000	100.546	31.2248
825.000000	100.598	32.1054
838.000000	100.654	33.0102
850.000000	100.703	33.8693
862.000000	100.764	34.7022
875.000000	100.828	35.6182
885.000000	100.881	36.2912
900.000000	100.969	37.2870
912.000000	101.042	38.1553
925.000000	101.131	38.9982
938.000000	101.224	39.8221
950.000000	101.312	40.5423
962.000000	101.401	41.2412
975.000000	101.503	41.9547
988.000000	101.601	42.6287
1000.000000	101.671	43.2051
1015.000000	101.815	43.9583
1030.000000	101.938	44.6245
1044.000000	102.055	45.2066
1060.000000	102.191	45.7813
1075.000000	102.320	46.2859
1090.000000	102.432	46.7424
1106.000000	102.561	47.1809
1120.000000	102.676	47.5166
1138.000000	102.816	47.9216
1150.000000	102.909	48.1307
1172.000000	103.071	48.4807
1180.000000	103.128	48.5887
1206.000000	103.316	48.8412
1220.000000	103.426	48.9387
1241.000000	103.584	49.0063
1250.000000	103.648	49.0489
1265.000000	103.743	49.1074
1280.000000	103.831	49.1243
1315.000000	104.013	49.2617
1320.000000	104.035	49.3135
1340.000000	104.118	49.5451
1360.000000	104.213	49.8872
1380.000000	104.324	50.3107
1400.000000	104.435	50.7545
1430.000000	104.642	51.4968
1450.000000	104.790	51.9715
1475.000000	104.973	52.5311
1500.000000	105.161	53.0678
1525.000000	105.360	53.5447
1550.000000	105.542	53.9737
1575.000000	105.724	54.3792
1600.000000	105.913	54.7464
1625.000000	106.100	55.0438
1650.000000	106.291	55.3370
1675.000000	106.488	55.5830
1700.000000	106.690	55.7306
1725.000000	106.899	55.8883
1750.000000	107.110	55.9775
1775.000000	107.322	56.0089
1800.000000	107.534	55.9979
1825.000000	107.745	55.9259
1850.000000	107.959	55.8124
1875.000000	108.173	55.6559
1900.000000	108.391	55.4340
1925.000000	108.602	55.1566
1950.000000	108.815	54.8222
1975.000000	109.021	54.4397
2000.000000	109.229	54.0577
2030.000000	109.482	53.3582
2060.000000	109.728	52.6211
2090.000000	109.969	51.7780
2120.000000	110.204	50.8621
2140.000000	110.357	50.2126
2180.000000	110.651	48.7524
2200.000000	110.791	47.9605
2240.000000	111.059	46.2925
2270.000000	111.248	44.9253
2300.000000	111.421	43.4514
2330.000000	111.580	41.9449
2360.000000	111.723	40.3536
2400.000000	111.883	38.1910
2430.000000	111.981	36.4777
2470.000000	112.084	34.2277
2500.000000	112.136	32.5272
2540.000000	112.189	30.3231
2580.000000	112.212	28.1736
2620.000000	112.214	26.0500
2650.000000	112.197	24.4982
2690.000000	112.157	22.5382
2720.000000	112.116	21.1390
2760.000000	112.046	19.3128
2800.000000	111.966	17.6063
2850.000000	111.858	15.5228
2900.000000	111.723	13.4657
2950.000000	111.563	11.6263
3000.000000	111.391	9.8738
3040.000000	111.251	8.7742
3070.000000	111.152	7.9241
3110.000000	111.021	6.7891
3150.000000	110.890	5.6218
3200.000000	110.697	4.1769
3250.000000	110.469	2.6688
3300.000000	110.193	1.3878
3350.000000	109.868	0.4248
3400.000000	109.533	-0.0248
3450.000000	109.228	-0.0036
3500.000000	108.962	0.2512
3550.000000	108.726	0.6179
3600.000000	108.512	1.1688
3650.000000	108.334	1.9377
3700.000000	108.202	2.6932
3750.000000	108.094	3.4154
3820.000000	107.953	4.4407
3870.000000	107.881	5.3109
3950.000000	107.842	6.7850
4000.000000	107.865	7.5109
4060.000000	107.898	8.1555
4120.000000	107.930	8.7054
4180.000000	107.969	9.2239
4250.000000	108.024	9.8549
4310.000000	108.104	10.5131
4370.000000	108.215	11.1683
4440.000000	108.398	11.7924
4500.000000	108.601	12.0476
4550.000000	108.802	12.0759
4620.000000	109.104	11.5793
4680.000000	109.370	10.6464
4750.000000	109.657	8.9281
4820.000000	109.878	6.5712
4870.000000	109.982	4.6674
4940.000000	110.032	1.8242
5000.000000	109.995	-0.6122
5080.000000	109.865	-3.5432
5150.000000	109.728	-5.7155
5220.000000	109.613	-7.8092
5300.000000	109.464	-10.5824
5380.000000	109.228	-13.6136
5450.000000	108.933	-16.2515
5520.000000	108.552	-18.7089
5600.000000	108.041	-21.0535
5700.000000	107.331	-23.2120
5800.000000	106.588	-24.5453
5900.000000	105.848	-25.0964
6000.000000	105.112	-25.0487
6080.000000	104.526	-24.5122
6150.000000	104.040	-23.6629
6220.000000	103.584	-22.4355
6300.000000	103.128	-20.8783
6400.000000	102.629	-18.8257
6500.000000	102.180	-16.8376
6600.000000	101.739	-14.7119
6700.000000	101.323	-12.4158
6800.000000	100.927	-9.5489
6900.000000	100.649	-6.2390
7000.000000	100.521	-2.5626
7100.000000	100.524	1.3772
7200.000000	100.651	5.4346
7300.000000	100.930	9.2092
7400.000000	101.336	12.5505
7500.000000	101.852	15.1819
7620.000000	102.543	17.5541
7750.000000	103.569	19.5598
7880.000000	104.584	19.8665
8000.000000	105.580	17.8768
8120.000000	106.429	13.8102
8250.000000	107.071	8.1587
8380.000000	107.424	2.2677
8500.000000	107.548	-2.6533
8620.000000	107.579	-6.8083
8750.000000	107.525	-10.4543
8850.000000	107.495	-12.7978
9000.000000	107.479	-15.9516
9120.000000	107.502	-18.3118
9250.000000	107.544	-20.6472
9380.000000	107.660	-22.9207
9500.000000	107.817	-25.2043
9620.000000	108.028	-28.1251
9750.000000	108.209	-32.0924
9880.000000	108.305	-36.8361
10000.000000	108.247	-41.5403
10150.000000	107.968	-47.3739
10300.000000	107.499	-52.5958
10440.000000	106.928	-56.5615
10600.000000	106.192	-59.9340
10750.000000	105.503	-62.0527
10900.000000	104.835	-63.4277
11060.000000	104.183	-64.4684
11200.000000	103.626	-65.1864
11380.000000	102.869	-65.9705
11500.000000	102.340	-66.1959
11720.000000	101.307	-65.7405
11800.000000	100.938	-65.0320
12060.000000	99.890	-62.3593
12200.000000	99.411	-60.6644
12410.000000	98.832	-58.3151
12500.000000	98.616	-57.4606
12650.000000	98.263	-56.4081
12800.000000	97.906	-55.5400
13150.000000	97.184	-53.6752
13200.000000	97.093	-53.4169
13400.000000	96.879	-52.5778
13600.000000	96.948	-52.7487
13800.000000	97.378	-54.6356
14000.000000	98.188	-59.3511
14300.000000	99.647	-73.5257
14500.000000	100.539	-87.9204
14750.000000	101.095	-109.3281
15000.000000	100.983	-129.5745
15250.000000	100.656	-145.3889
15500.000000	100.488	-156.6790
15750.000000	100.620	-164.9579
16000.000000	101.037	-171.5103
16250.000000	101.703	-177.3956
16500.000000	102.554	176.3178
16750.000000	103.486	169.1060
17000.000000	104.409	160.3000
17250.000000	105.189	149.4130
17500.000000	105.688	136.6370
17750.000000	105.874	122.6094
18000.000000	105.576	106.8311
18250.000000	104.835	91.9583
18500.000000	103.835	77.4487
18750.000000	102.662	63.2648
19000.000000	101.378	49.1267
19250.000000	100.034	33.1978
19500.000000	98.214	14.5469
19750.000000	95.890	-4.4541
