* Measurement data measured by REW V5.20.13
* Source: Microphone (USB Sound Device        ), MICROPHONE (Master Volume), L, volume: 0.250
* Format: 256k Log Swept Sine, 1 sweep at -12.0 dBFS with no timing reference
* Dated: Jun 26, 2023 10:17:32 PM
* REW Settings:
*  C-weighting compensation: Off
*  Target level: 75.0 dB
* Note: 
* Measurement: KZ AS24 UDDU DUDD R
* Smoothing: 1/12 octave
* Frequency Step: 1/48 octave
* Start Frequency: 20.000 Hz
*
* Freq(Hz)	SPL(dB)	Phase(degrees)
20.000000	94.251	10.6330
20.299999	94.250	10.0871
20.600000	94.251	9.5471
20.900000	94.253	9.0156
21.200001	94.256	8.4973
21.400000	94.258	8.1625
21.799999	94.263	7.5230
22.000000	94.267	7.2195
22.400000	94.277	6.6425
22.700001	94.288	6.2292
23.000000	94.301	5.8242
23.299999	94.315	5.4203
23.600000	94.329	5.0130
24.000000	94.348	4.4597
24.299999	94.359	4.0364
24.700001	94.370	3.4629
25.000000	94.374	3.0291
25.400000	94.374	2.4509
25.799999	94.370	1.8787
26.200001	94.360	1.3152
26.500000	94.352	0.8976
26.900000	94.339	0.3450
27.200001	94.328	-0.0677
27.600000	94.314	-0.6165
28.000000	94.299	-1.1625
28.500000	94.281	-1.8389
29.000000	94.266	-2.5083
29.500000	94.252	-3.1705
30.000000	94.239	-3.8225
30.400000	94.230	-4.3328
30.700001	94.223	-4.7068
31.100000	94.215	-5.1926
31.500000	94.207	-5.6642
32.000000	94.197	-6.2364
32.500000	94.187	-6.7932
33.000000	94.176	-7.3367
33.500000	94.162	-7.8663
34.000000	94.148	-8.3831
34.500000	94.133	-8.8912
35.000000	94.117	-9.3975
35.500000	94.100	-9.9069
36.000000	94.081	-10.4187
36.500000	94.062	-10.9284
37.000000	94.041	-11.4316
37.500000	94.021	-11.9275
38.200001	93.995	-12.6126
38.700001	93.977	-13.0981
39.500000	93.949	-13.8665
40.000000	93.931	-14.3375
40.599998	93.909	-14.8906
41.200001	93.888	-15.4311
41.799999	93.866	-15.9606
42.500000	93.841	-16.5672
43.099998	93.819	-17.0804
43.700001	93.797	-17.5896
44.400002	93.770	-18.1790
45.000000	93.747	-18.6793
45.500000	93.727	-19.0927
46.200001	93.699	-19.6661
46.799999	93.675	-20.1534
47.500000	93.646	-20.7194
48.200001	93.616	-21.2828
48.700001	93.593	-21.6791
49.400002	93.560	-22.2172
50.000000	93.533	-22.6632
50.799999	93.500	-23.2520
51.500000	93.473	-23.7721
52.200001	93.445	-24.2933
53.000000	93.412	-24.8802
53.799999	93.379	-25.4541
54.500000	93.350	-25.9464
55.200001	93.320	-26.4301
56.000000	93.286	-26.9738
57.000000	93.241	-27.6404
58.000000	93.195	-28.2943
59.000000	93.149	-28.9409
60.000000	93.103	-29.5836
60.799999	93.067	-30.0924
61.500000	93.035	-30.5319
62.200001	93.004	-30.9654
63.000000	92.969	-31.4537
64.000000	92.924	-32.0527
65.000000	92.879	-32.6400
66.000000	92.834	-33.2180
67.000000	92.788	-33.7896
68.000000	92.741	-34.3553
69.000000	92.694	-34.9144
70.000000	92.648	-35.4653
71.000000	92.602	-36.0072
72.000000	92.557	-36.5396
73.000000	92.512	-37.0629
74.000000	92.467	-37.5779
75.000000	92.422	-38.0848
76.199997	92.368	-38.6835
77.500000	92.308	-39.3213
78.800003	92.248	-39.9484
80.000000	92.193	-40.5201
81.199997	92.139	-41.0874
82.500000	92.082	-41.6942
83.800003	92.024	-42.2863
85.000000	91.971	-42.8121
86.199997	91.918	-43.3196
87.500000	91.859	-43.8588
88.500000	91.813	-44.2714
90.000000	91.742	-44.8862
91.199997	91.685	-45.3662
92.500000	91.625	-45.8686
93.800003	91.569	-46.3632
95.000000	91.519	-46.8210
96.199997	91.466	-47.2725
97.500000	91.407	-47.7407
98.800003	91.348	-48.1885
100.000000	91.297	-48.6050
101.500000	91.236	-49.1587
103.000000	91.174	-49.7310
104.400002	91.115	-50.2520
106.000000	91.048	-50.8178
107.500000	90.985	-51.3147
109.000000	90.922	-51.7789
110.599998	90.855	-52.2505
112.000000	90.798	-52.6542
113.800003	90.724	-53.1689
115.000000	90.677	-53.5187
117.199997	90.589	-54.1875
118.000000	90.556	-54.4330
120.599998	90.447	-55.2065
122.000000	90.388	-55.6016
124.099998	90.301	-56.1702
125.000000	90.265	-56.4086
126.500000	90.205	-56.8018
128.000000	90.146	-57.1899
131.500000	90.007	-58.0674
132.000000	89.987	-58.1891
134.000000	89.908	-58.6669
136.000000	89.830	-59.1309
138.000000	89.755	-59.5820
140.000000	89.680	-60.0184
143.000000	89.567	-60.6447
145.000000	89.491	-61.0459
147.500000	89.397	-61.5304
150.000000	89.307	-62.0004
152.500000	89.221	-62.4623
155.000000	89.137	-62.9049
157.500000	89.053	-63.3075
160.000000	88.968	-63.6730
162.500000	88.883	-64.0140
165.000000	88.803	-64.3285
167.500000	88.730	-64.5893
170.000000	88.665	-64.7963
172.500000	88.607	-65.0008
175.000000	88.553	-65.2441
177.500000	88.506	-65.5345
180.000000	88.468	-65.8703
182.500000	88.438	-66.2480
185.000000	88.408	-66.6730
187.500000	88.374	-67.1531
190.000000	88.333	-67.6795
192.500000	88.284	-68.2213
195.000000	88.226	-68.7461
197.500000	88.161	-69.2416
200.000000	88.092	-69.7084
203.000000	88.007	-70.2324
206.000000	87.924	-70.7174
209.000000	87.844	-71.1625
212.000000	87.765	-71.5715
214.000000	87.714	-71.8286
218.000000	87.616	-72.3169
220.000000	87.568	-72.5509
224.000000	87.473	-72.9918
227.000000	87.402	-73.2948
230.000000	87.334	-73.5823
233.000000	87.267	-73.8628
236.000000	87.202	-74.1392
240.000000	87.119	-74.5028
243.000000	87.058	-74.7698
247.000000	86.979	-75.1137
250.000000	86.922	-75.3546
254.000000	86.848	-75.6466
258.000000	86.778	-75.9180
262.000000	86.710	-76.1785
265.000000	86.661	-76.3672
269.000000	86.596	-76.6090
272.000000	86.549	-76.7834
276.000000	86.487	-77.0067
280.000000	86.428	-77.2231
285.000000	86.358	-77.4883
290.000000	86.291	-77.7394
295.000000	86.227	-77.9683
300.000000	86.167	-78.1753
304.000000	86.122	-78.3289
307.000000	86.089	-78.4393
311.000000	86.046	-78.5808
315.000000	86.005	-78.7147
320.000000	85.957	-78.8713
325.000000	85.911	-79.0170
330.000000	85.869	-79.1509
335.000000	85.829	-79.2711
340.000000	85.791	-79.3783
345.000000	85.756	-79.4755
350.000000	85.724	-79.5631
355.000000	85.696	-79.6396
360.000000	85.672	-79.7056
365.000000	85.648	-79.7629
370.000000	85.627	-79.8115
375.000000	85.609	-79.8505
382.000000	85.588	-79.8888
387.000000	85.576	-79.9046
395.000000	85.560	-79.9113
400.000000	85.553	-79.9064
406.000000	85.546	-79.8915
412.000000	85.543	-79.8638
418.000000	85.545	-79.8229
425.000000	85.553	-79.7605
431.000000	85.563	-79.6986
437.000000	85.578	-79.6326
444.000000	85.599	-79.5498
450.000000	85.620	-79.4720
455.000000	85.641	-79.4039
462.000000	85.673	-79.3077
468.000000	85.705	-79.2242
475.000000	85.747	-79.1250
482.000000	85.791	-79.0253
487.000000	85.826	-78.9540
494.000000	85.876	-78.8542
500.000000	85.923	-78.7693
508.000000	85.989	-78.6583
515.000000	86.050	-78.5632
522.000000	86.115	-78.4700
530.000000	86.193	-78.3670
538.000000	86.275	-78.2682
545.000000	86.351	-78.1832
552.000000	86.430	-78.0984
560.000000	86.523	-78.0040
570.000000	86.645	-77.8938
580.000000	86.773	-77.7948
590.000000	86.907	-77.7123
600.000000	87.045	-77.6481
608.000000	87.160	-77.6088
615.000000	87.262	-77.5841
622.000000	87.366	-77.5675
630.000000	87.487	-77.5557
640.000000	87.642	-77.5513
650.000000	87.800	-77.5642
660.000000	87.963	-77.6001
670.000000	88.130	-77.6603
680.000000	88.302	-77.7465
690.000000	88.477	-77.8594
700.000000	88.654	-77.9990
710.000000	88.833	-78.1683
720.000000	89.013	-78.3735
730.000000	89.195	-78.6173
740.000000	89.378	-78.8953
750.000000	89.561	-79.2018
762.000000	89.780	-79.6052
775.000000	90.016	-80.0927
788.000000	90.251	-80.6411
800.000000	90.466	-81.2022
812.000000	90.677	-81.8140
825.000000	90.903	-82.5286
838.000000	91.123	-83.2921
850.000000	91.320	-84.0388
862.000000	91.512	-84.8262
875.000000	91.712	-85.7225
885.000000	91.862	-86.4400
900.000000	92.077	-87.5579
912.000000	92.242	-88.4869
925.000000	92.414	-89.5275
938.000000	92.576	-90.6008
950.000000	92.719	-91.6157
962.000000	92.853	-92.6490
975.000000	92.990	-93.7865
988.000000	93.119	-94.9418
1000.000000	93.230	-96.0230
1015.000000	93.358	-97.3893
1030.000000	93.474	-98.7632
1044.000000	93.572	-100.0456
1060.000000	93.671	-101.5070
1075.000000	93.753	-102.8694
1090.000000	93.824	-104.2192
1106.000000	93.889	-105.6373
1120.000000	93.936	-106.8534
1138.000000	93.984	-108.3781
1150.000000	94.010	-109.3684
1172.000000	94.044	-111.1270
1180.000000	94.052	-111.7471
1206.000000	94.067	-113.6831
1220.000000	94.068	-114.6716
1241.000000	94.060	-116.0799
1250.000000	94.053	-116.6559
1265.000000	94.039	-117.5795
1280.000000	94.021	-118.4583
1315.000000	93.969	-120.3358
1320.000000	93.961	-120.5845
1340.000000	93.925	-121.5321
1360.000000	93.886	-122.4052
1380.000000	93.846	-123.2054
1400.000000	93.805	-123.9373
1430.000000	93.744	-124.9178
1450.000000	93.704	-125.4993
1475.000000	93.655	-126.1511
1500.000000	93.610	-126.7263
1525.000000	93.568	-127.2355
1550.000000	93.530	-127.6869
1575.000000	93.495	-128.0846
1600.000000	93.465	-128.4337
1625.000000	93.439	-128.7412
1650.000000	93.418	-129.0134
1675.000000	93.400	-129.2557
1700.000000	93.387	-129.4716
1725.000000	93.378	-129.6619
1750.000000	93.372	-129.8275
1775.000000	93.370	-129.9695
1800.000000	93.372	-130.0900
1825.000000	93.376	-130.1906
1850.000000	93.384	-130.2722
1875.000000	93.395	-130.3344
1900.000000	93.410	-130.3755
1925.000000	93.428	-130.3940
1950.000000	93.450	-130.3884
1975.000000	93.477	-130.3580
2000.000000	93.510	-130.3043
2030.000000	93.557	-130.2118
2060.000000	93.615	-130.0924
2090.000000	93.685	-129.9552
2120.000000	93.767	-129.8139
2140.000000	93.830	-129.7249
2180.000000	93.974	-129.5822
2200.000000	94.055	-129.5385
2240.000000	94.236	-129.5316
2270.000000	94.386	-129.6176
2300.000000	94.546	-129.7997
2330.000000	94.714	-130.0930
2360.000000	94.890	-130.5104
2400.000000	95.130	-131.2770
2430.000000	95.311	-132.0188
2470.000000	95.550	-133.2408
2500.000000	95.723	-134.3351
2540.000000	95.940	-136.0276
2580.000000	96.137	-137.9734
2620.000000	96.309	-140.1486
2650.000000	96.419	-141.9114
2690.000000	96.539	-144.4069
2720.000000	96.608	-146.3660
2760.000000	96.671	-149.0577
2800.000000	96.698	-151.7924
2850.000000	96.685	-155.2006
2900.000000	96.625	-158.5263
2950.000000	96.524	-161.6955
3000.000000	96.388	-164.6458
3040.000000	96.257	-166.8264
3070.000000	96.149	-168.3539
3110.000000	95.998	-170.2485
3150.000000	95.841	-171.9858
3200.000000	95.640	-173.9462
3250.000000	95.437	-175.6896
3300.000000	95.235	-177.2414
3350.000000	95.038	-178.6274
3400.000000	94.848	-179.8687
3450.000000	94.666	179.0142
3500.000000	94.496	177.9922
3550.000000	94.339	177.0339
3600.000000	94.193	176.1152
3650.000000	94.053	175.2108
3700.000000	93.921	174.2939
3750.000000	93.795	173.3411
3820.000000	93.628	171.9290
3870.000000	93.506	170.8798
3950.000000	93.293	169.2138
4000.000000	93.146	168.2287
4060.000000	92.963	167.1421
4120.000000	92.780	166.1721
4180.000000	92.604	165.3092
4250.000000	92.412	164.4103
4310.000000	92.261	163.7061
4370.000000	92.123	163.0411
4440.000000	91.983	162.2829
4500.000000	91.883	161.6027
4550.000000	91.813	160.9688
4620.000000	91.731	159.8914
4680.000000	91.665	158.7144
4750.000000	91.572	156.9944
4820.000000	91.434	154.9434
4870.000000	91.296	153.3536
4940.000000	91.038	151.1127
5000.000000	90.755	149.3245
5080.000000	90.299	147.3307
5150.000000	89.846	146.0671
5220.000000	89.364	145.2945
5300.000000	88.805	144.9927
5380.000000	88.260	145.2372
5450.000000	87.812	145.8166
5520.000000	87.398	146.6604
5600.000000	86.972	147.8625
5700.000000	86.510	149.5963
5800.000000	86.124	151.4643
5900.000000	85.805	153.3745
6000.000000	85.543	155.2665
6080.000000	85.368	156.7408
6150.000000	85.238	157.9903
6220.000000	85.126	159.1964
6300.000000	85.018	160.5207
6400.000000	84.909	162.0947
6500.000000	84.825	163.5746
6600.000000	84.760	164.9620
6700.000000	84.710	166.2623
6800.000000	84.671	167.4856
6900.000000	84.641	168.6530
7000.000000	84.615	169.8071
7100.000000	84.594	171.0113
7200.000000	84.585	172.3239
7300.000000	84.599	173.7811
7400.000000	84.648	175.4039
7500.000000	84.750	177.1944
7620.000000	84.970	179.5266
7750.000000	85.381	-177.8611
7880.000000	86.030	-175.5253
8000.000000	86.852	-174.2213
8120.000000	87.825	-174.4631
8250.000000	88.915	-177.1680
8380.000000	89.880	177.2302
8500.000000	90.535	169.6414
8620.000000	90.882	160.3589
8750.000000	90.867	149.5330
8850.000000	90.585	141.4994
9000.000000	89.786	131.0969
9120.000000	88.903	124.7065
9250.000000	87.797	119.8100
9380.000000	86.617	116.8344
9500.000000	85.521	115.5457
9620.000000	84.463	115.3845
9750.000000	83.396	116.1363
9880.000000	82.415	117.5908
10000.000000	81.580	119.4744
10150.000000	80.633	122.4577
10300.000000	79.793	125.9967
10440.000000	79.098	129.7141
10600.000000	78.400	134.4381
10750.000000	77.842	139.3453
10900.000000	77.395	144.6789
11060.000000	77.065	150.6810
11200.000000	76.913	155.9769
11380.000000	76.886	162.4804
11500.000000	76.944	166.4864
11720.000000	77.126	173.1660
11800.000000	77.204	175.4499
12060.000000	77.507	-177.2875
12200.000000	77.727	-173.3653
12410.000000	78.190	-167.5237
12500.000000	78.451	-165.1138
12650.000000	78.978	-161.3857
12800.000000	79.615	-158.2507
13150.000000	81.356	-155.0632
13200.000000	81.603	-155.2614
13400.000000	82.466	-158.0017
13600.000000	82.986	-163.5723
13800.000000	83.022	-170.5508
14000.000000	82.547	-176.6537
14300.000000	81.163	179.7062
14500.000000	80.161	-178.7772
14750.000000	79.284	-174.7009
15000.000000	78.961	-171.2569
15250.000000	78.901	-170.3604
15500.000000	78.729	-171.8524
15750.000000	78.248	-174.2133
16000.000000	77.442	-175.7746
16250.000000	76.406	-175.5661
16500.000000	75.266	-173.4490
16750.000000	74.126	-169.7559
17000.000000	73.032	-164.8345
17250.000000	71.983	-158.7471
17500.000000	70.970	-151.1525
17750.000000	70.069	-141.3989
18000.000000	69.582	-129.1448
18250.000000	69.986	-115.5682
18500.000000	71.322	-103.8823
18750.000000	72.982	-97.8037
19000.000000	74.354	-99.2582
19250.000000	75.155	-107.0871
19500.000000	75.380	-118.0002
19750.000000	75.207	-128.3517
