* Measurement data measured by REW V5.20
* Source: USB-C to 3.5mm Headphone Jack Adapter, USB-C to 3.5mm Headphone Jack Adapter, 0, volume: 0.138
* Format: 256k Log Swept Sine, 1 sweep at -12.0 dBFS with no timing reference
* Dated: Oct 2, 2023 7:14:27 PM
* REW Settings:
*  C-weighting compensation: Off
*  Target level: 75.0 dB
* Note: 
* Measurement: L
* Smoothing: None
* Frequency Step: 1/48 octave
* Start Frequency: 20.300 Hz
*
* Freq(Hz)	SPL(dB)	Phase(degrees)
20.299999	105.990204	-167.0999
20.600000	105.986977	-167.7851
20.900000	105.979988	-168.3982
21.200001	105.975861	-169.0071
21.400000	105.975800	-169.4168
21.799999	105.980682	-170.2474
22.000000	105.984291	-170.6646
22.400000	105.990845	-171.4859
22.700001	105.993332	-172.0736
23.000000	105.993637	-172.6295
23.299999	105.992493	-173.1559
23.600000	105.990845	-173.6635
24.000000	105.988602	-174.3354
24.299999	105.986557	-174.8490
24.700001	105.982468	-175.5497
25.000000	105.978210	-176.0780
25.400000	105.971855	-176.7682
25.799999	105.966583	-177.4289
26.200001	105.963455	-178.0617
26.500000	105.961975	-178.5256
26.900000	105.959091	-179.1395
27.200001	105.954842	-179.5986
27.600000	105.945511	179.7952
28.000000	105.933083	179.2026
28.500000	105.917015	178.4839
29.000000	105.903992	177.7759
29.500000	105.893257	177.0632
30.000000	105.880707	176.3501
30.400000	105.867706	175.7933
30.700001	105.856598	175.3900
31.100000	105.841354	174.8717
31.500000	105.826981	174.3667
32.000000	105.810501	173.7377
32.500000	105.793884	173.1065
33.000000	105.775703	172.4893
33.500000	105.757095	171.9018
34.000000	105.740196	171.3394
34.500000	105.725250	170.7814
35.000000	105.710152	170.2118
35.500000	105.692802	169.6316
36.000000	105.672882	169.0536
36.500000	105.651489	168.4895
37.000000	105.629997	167.9444
37.500000	105.609215	167.4173
38.200001	105.581413	166.6990
38.700001	105.561821	166.1913
39.500000	105.529251	165.3802
40.000000	105.507858	164.8775
40.599998	105.481544	164.2874
41.200001	105.455444	163.7174
41.799999	105.430038	163.1620
42.500000	105.399117	162.5168
43.099998	105.369164	161.9686
43.700001	105.337921	161.4386
44.400002	105.305534	160.8352
45.000000	105.281174	160.3113
45.500000	105.260239	159.8751
46.200001	105.227974	159.2896
46.799999	105.198708	158.8094
47.500000	105.162880	158.2471
48.200001	105.126129	157.6784
48.700001	105.102104	157.2740
49.400002	105.072838	156.7065
50.000000	105.047516	156.2274
50.799999	105.008148	155.6372
51.500000	104.971336	155.1569
52.200001	104.935104	154.6583
53.000000	104.894295	154.0541
53.799999	104.856369	153.4600
54.500000	104.825119	152.9658
55.200001	104.791565	152.4911
56.000000	104.750450	151.9642
57.000000	104.704132	151.2934
58.000000	104.661774	150.6171
59.000000	104.614952	150.0102
60.000000	104.563980	149.4258
60.799999	104.521629	148.9251
61.500000	104.485580	148.4747
62.200001	104.451401	148.0356
63.000000	104.414139	147.5583
64.000000	104.367165	146.9718
65.000000	104.315674	146.3911
66.000000	104.265160	145.8458
67.000000	104.220284	145.3036
68.000000	104.174782	144.7394
69.000000	104.125648	144.2028
70.000000	104.080917	143.6900
71.000000	104.035881	143.1458
72.000000	103.987144	142.6266
73.000000	103.940880	142.1301
74.000000	103.893356	141.6368
75.000000	103.846230	141.1485
76.199997	103.789742	140.5717
77.500000	103.731155	139.9606
78.800003	103.670815	139.3570
80.000000	103.617821	138.8172
81.199997	103.565201	138.2773
82.500000	103.503906	137.7170
83.800003	103.448257	137.1730
85.000000	103.397049	136.6489
86.199997	103.344223	136.1514
87.500000	103.282196	135.6368
88.500000	103.237289	135.2291
90.000000	103.177666	134.6365
91.199997	103.130501	134.1631
92.500000	103.070610	133.6344
93.800003	103.014801	133.1608
95.000000	102.969261	132.7123
96.199997	102.916267	132.3058
97.500000	102.865120	131.8544
98.800003	102.814346	131.4124
100.000000	102.767662	130.9701
101.500000	102.706894	130.4656
103.000000	102.646751	129.9857
104.400002	102.589684	129.5285
106.000000	102.523926	128.9665
107.500000	102.468750	128.5293
109.000000	102.413651	128.1035
110.599998	102.355423	127.5920
112.000000	102.315506	127.1248
113.800003	102.250412	126.6363
115.000000	102.200104	126.2366
117.199997	102.124817	125.6330
118.000000	102.098068	125.4325
120.599998	102.004509	124.7428
122.000000	101.949326	124.3047
124.099998	101.892967	123.7424
125.000000	101.862595	123.5293
126.500000	101.809959	123.1347
128.000000	101.757278	122.7648
131.500000	101.649498	121.9160
132.000000	101.634262	121.8038
134.000000	101.563828	121.3187
136.000000	101.505333	120.8353
138.000000	101.446289	120.3828
140.000000	101.386574	119.9284
143.000000	101.298561	119.3015
145.000000	101.242928	118.8557
147.500000	101.168991	118.3502
150.000000	101.100609	117.8257
152.500000	101.028038	117.3250
155.000000	100.958694	116.8430
157.500000	100.888657	116.3935
160.000000	100.817978	115.9313
162.500000	100.747566	115.5181
165.000000	100.682312	115.1383
167.500000	100.612404	114.7939
170.000000	100.545891	114.4561
172.500000	100.486221	114.1704
175.000000	100.425224	113.9229
177.500000	100.373474	113.7207
180.000000	100.326942	113.5560
182.500000	100.291641	113.3924
185.000000	100.264389	113.2753
187.500000	100.249710	113.0659
190.000000	100.246971	112.8211
192.500000	100.249207	112.5554
195.000000	100.253502	112.2097
197.500000	100.255669	111.8027
200.000000	100.256279	111.3179
203.000000	100.248138	110.6982
206.000000	100.223000	110.0425
209.000000	100.191833	109.4120
212.000000	100.143951	108.7557
214.000000	100.116623	108.4717
218.000000	100.053162	107.7707
220.000000	100.019928	107.4836
224.000000	99.958885	106.9016
227.000000	99.912857	106.4889
230.000000	99.871124	106.1015
233.000000	99.829361	105.7585
236.000000	99.787949	105.3980
240.000000	99.740211	104.9527
243.000000	99.702545	104.6371
247.000000	99.657379	104.2303
250.000000	99.623505	103.9288
254.000000	99.582268	103.5461
258.000000	99.543182	103.1795
262.000000	99.504494	102.8291
265.000000	99.479362	102.5762
269.000000	99.445747	102.2509
272.000000	99.422005	102.0035
276.000000	99.390999	101.7056
280.000000	99.364792	101.3968
285.000000	99.330109	101.0326
290.000000	99.300240	100.6869
295.000000	99.271660	100.3544
300.000000	99.245224	100.0190
304.000000	99.225327	99.7830
307.000000	99.211433	99.6010
311.000000	99.193573	99.3703
315.000000	99.177116	99.1486
320.000000	99.159805	98.8763
325.000000	99.143044	98.6233
330.000000	99.128677	98.3699
335.000000	99.116364	98.1338
340.000000	99.103836	97.8832
345.000000	99.096497	97.6836
350.000000	99.088356	97.4775
355.000000	99.081078	97.2727
360.000000	99.076118	97.0899
365.000000	99.070488	96.8918
370.000000	99.068245	96.7197
375.000000	99.066269	96.5398
382.000000	99.065567	96.3242
387.000000	99.068161	96.1761
395.000000	99.071571	95.9515
400.000000	99.078156	95.8135
406.000000	99.083832	95.6740
412.000000	99.092102	95.5316
418.000000	99.102905	95.3875
425.000000	99.115021	95.2266
431.000000	99.127907	95.1214
437.000000	99.141762	94.9915
444.000000	99.160034	94.8635
450.000000	99.172562	94.7610
455.000000	99.187317	94.6727
462.000000	99.205750	94.5709
468.000000	99.225960	94.4694
475.000000	99.247124	94.3578
482.000000	99.271423	94.2766
487.000000	99.287796	94.2049
494.000000	99.310852	94.1142
500.000000	99.331467	94.0496
508.000000	99.362114	93.9587
515.000000	99.386139	93.8677
522.000000	99.413757	93.8049
530.000000	99.444260	93.7170
538.000000	99.474876	93.6388
545.000000	99.501785	93.5816
552.000000	99.528999	93.5347
560.000000	99.560547	93.4646
570.000000	99.598900	93.3858
580.000000	99.637772	93.3159
590.000000	99.675720	93.2532
600.000000	99.713669	93.1887
608.000000	99.745369	93.1433
615.000000	99.769226	93.1025
622.000000	99.797020	93.0645
630.000000	99.825630	93.0294
640.000000	99.861015	92.9961
650.000000	99.896973	92.9553
660.000000	99.932343	92.9272
670.000000	99.966888	92.8888
680.000000	99.999947	92.8473
690.000000	100.032990	92.7965
700.000000	100.060722	92.7542
710.000000	100.085938	92.7050
720.000000	100.108330	92.6648
730.000000	100.126923	92.6437
740.000000	100.141968	92.6142
750.000000	100.155846	92.6002
762.000000	100.165215	92.6145
775.000000	100.171768	92.6637
788.000000	100.174301	92.7250
800.000000	100.174355	92.8311
812.000000	100.170212	92.9670
825.000000	100.162796	93.1627
838.000000	100.152771	93.3962
850.000000	100.144653	93.6643
862.000000	100.134918	93.9632
875.000000	100.126335	94.3401
885.000000	100.120041	94.6489
900.000000	100.112244	95.1772
912.000000	100.111252	95.6375
925.000000	100.111137	96.1629
938.000000	100.115578	96.7159
950.000000	100.122765	97.2560
962.000000	100.134537	97.8085
975.000000	100.152260	98.4267
988.000000	100.174713	99.0547
1000.000000	100.200836	99.6448
1015.000000	100.234772	100.3795
1030.000000	100.277557	101.1044
1044.000000	100.322113	101.7784
1060.000000	100.376244	102.5433
1075.000000	100.432739	103.2510
1090.000000	100.493088	103.9292
1106.000000	100.558167	104.6334
1120.000000	100.619499	105.2305
1138.000000	100.696625	105.9639
1150.000000	100.750710	106.4438
1172.000000	100.847382	107.2648
1180.000000	100.883568	107.5602
1206.000000	100.995483	108.4859
1220.000000	101.053825	108.9561
1241.000000	101.139381	109.6635
1250.000000	101.174950	109.9525
1265.000000	101.232353	110.4302
1280.000000	101.288315	110.9144
1315.000000	101.414871	112.0403
1320.000000	101.432831	112.2008
1340.000000	101.501755	112.8430
1360.000000	101.566566	113.4920
1380.000000	101.633736	114.1581
1400.000000	101.697800	114.8225
1430.000000	101.795464	115.8464
1450.000000	101.861549	116.5265
1475.000000	101.946129	117.4070
1500.000000	102.033684	118.2882
1525.000000	102.123611	119.1755
1550.000000	102.217751	120.0510
1575.000000	102.316330	120.9421
1600.000000	102.420097	121.8131
1625.000000	102.528908	122.6689
1650.000000	102.644615	123.5141
1675.000000	102.768997	124.3224
1700.000000	102.898666	125.0763
1725.000000	103.036034	125.7670
1750.000000	103.172897	126.3903
1775.000000	103.314796	126.9564
1800.000000	103.457329	127.4648
1825.000000	103.601936	127.8970
1850.000000	103.748024	128.2521
1875.000000	103.893486	128.5247
1900.000000	104.037903	128.7195
1925.000000	104.179703	128.8074
1950.000000	104.318153	128.8169
1975.000000	104.451416	128.7303
2000.000000	104.576088	128.5474
2030.000000	104.710693	128.1883
2060.000000	104.824402	127.7352
2090.000000	104.916046	127.1701
2120.000000	104.983643	126.5574
2140.000000	105.015915	126.1342
2180.000000	105.047745	125.3242
2200.000000	105.054001	124.9484
2240.000000	105.060974	124.2195
2270.000000	105.059929	123.5703
2300.000000	105.032837	122.7843
2330.000000	104.968086	121.9944
2360.000000	104.865219	121.2873
2400.000000	104.688179	120.5832
2430.000000	104.536118	120.2415
2470.000000	104.319824	120.0591
2500.000000	104.152695	120.1212
2540.000000	103.933266	120.4106
2580.000000	103.722221	120.9415
2620.000000	103.524673	121.6505
2650.000000	103.388542	122.2910
2690.000000	103.220467	123.2694
2720.000000	103.109985	124.0814
2760.000000	102.980545	125.2408
2800.000000	102.870926	126.4674
2850.000000	102.768723	128.0988
2900.000000	102.706360	129.7541
2950.000000	102.682571	131.4060
3000.000000	102.692108	132.9853
3040.000000	102.725800	134.1912
3070.000000	102.762581	135.0614
3110.000000	102.830116	136.1243
3150.000000	102.914742	137.1125
3200.000000	103.041336	138.1829
3250.000000	103.185936	139.0900
3300.000000	103.344826	139.7657
3350.000000	103.509247	140.2582
3400.000000	103.675415	140.5675
3450.000000	103.840805	140.7274
3500.000000	104.008499	140.6999
3550.000000	104.169983	140.4758
3600.000000	104.314957	140.0500
3650.000000	104.432846	139.4795
3700.000000	104.519165	138.8365
3750.000000	104.571449	138.1773
3820.000000	104.600235	137.3720
3870.000000	104.593323	136.9131
3950.000000	104.540329	136.4872
4000.000000	104.493027	136.4446
4060.000000	104.436142	136.6435
4120.000000	104.386383	137.0797
4180.000000	104.349319	137.6653
4250.000000	104.321129	138.4512
4310.000000	104.302567	139.2049
4370.000000	104.285286	140.0327
4440.000000	104.262207	141.0842
4500.000000	104.241867	142.0829
4550.000000	104.224258	142.9611
4620.000000	104.197891	144.2650
4680.000000	104.163750	145.4203
4750.000000	104.110817	146.8969
4820.000000	104.043762	148.5638
4870.000000	103.989479	149.8889
4940.000000	103.911850	151.9435
5000.000000	103.845245	153.8781
5080.000000	103.765823	156.7171
5150.000000	103.709206	159.4136
5220.000000	103.670074	162.3121
5300.000000	103.650574	165.8018
5380.000000	103.661743	169.4242
5450.000000	103.692642	172.7069
5520.000000	103.745338	176.0203
5600.000000	103.830856	179.8757
5700.000000	103.978897	-175.2833
5800.000000	104.167053	-170.4557
5900.000000	104.402237	-165.7602
6000.000000	104.674728	-161.2652
6080.000000	104.918686	-157.8786
6150.000000	105.138786	-155.1154
6220.000000	105.365509	-152.5347
6300.000000	105.620903	-149.8940
6400.000000	105.921448	-147.0282
6500.000000	106.168961	-144.6667
6600.000000	106.339256	-142.6920
6700.000000	106.410278	-140.9454
6800.000000	106.373085	-139.1702
6900.000000	106.238503	-137.1703
7000.000000	106.030945	-134.7343
7100.000000	105.781311	-131.8024
7200.000000	105.523979	-128.3115
7300.000000	105.292732	-124.4524
7400.000000	105.093773	-120.3447
7500.000000	104.939278	-116.1131
7620.000000	104.817909	-111.2440
7750.000000	104.725815	-106.5267
7880.000000	104.624023	-102.6467
8000.000000	104.440819	-99.8904
8120.000000	104.102531	-97.7003
8250.000000	103.510536	-95.4062
8380.000000	102.705025	-92.5486
8500.000000	101.809906	-89.1401
8620.000000	100.796806	-84.7854
8750.000000	99.615585	-78.7652
8850.000000	98.685608	-73.1918
9000.000000	97.312836	-63.4524
9120.000000	96.255623	-54.5482
9250.000000	95.168900	-43.9351
9380.000000	94.141273	-32.1587
9500.000000	93.327049	-20.2678
9620.000000	92.676170	-7.4936
9750.000000	92.197922	6.7962
9880.000000	91.973701	20.9948
10000.000000	91.979477	33.5654
10150.000000	92.144081	48.0736
10300.000000	92.421684	61.3219
10440.000000	92.693680	72.7898
10600.000000	93.026886	85.2089
10750.000000	93.349083	96.4503
10900.000000	93.733170	107.2873
11060.000000	94.219666	118.4113
11200.000000	94.711105	127.4739
11380.000000	95.409782	138.1900
11500.000000	95.889771	144.7262
11720.000000	96.799370	155.5561
11800.000000	97.134506	159.1139
12060.000000	98.258240	169.2016
12200.000000	98.830971	173.3986
12410.000000	99.568077	178.7179
12500.000000	99.849022	-179.4043
12650.000000	100.201752	-176.6461
12800.000000	100.447464	-173.7048
13150.000000	101.035530	-165.4332
13200.000000	101.151825	-164.2160
13400.000000	101.751381	-159.9701
13600.000000	102.484856	-157.5033
13800.000000	103.200279	-157.3048
14000.000000	103.750237	-159.0755
14300.000000	104.205246	-163.7635
14500.000000	104.325157	-168.1265
14750.000000	104.214043	-175.0927
15000.000000	103.742264	176.6020
15250.000000	102.924408	167.6060
15500.000000	101.762810	157.9981
15750.000000	100.172905	148.5442
16000.000000	98.279404	141.0449
16250.000000	96.428360	135.6872
16500.000000	94.842789	131.2923
16750.000000	93.619858	126.6610
17000.000000	92.785957	120.7192
17250.000000	92.390419	112.4858
17500.000000	92.427933	100.8672
17750.000000	92.944077	84.1744
18000.000000	93.792328	59.6615
18250.000000	94.362373	23.7250
18500.000000	93.267845	-20.8814
18750.000000	90.523903	-60.5035
19000.000000	88.961205	-94.5175
19250.000000	87.334244	-145.0391
19500.000000	85.420441	165.5785
19750.000000	83.720749	98.4260
