* Measurement data measured by REW V5.20
* Source: USB-C to 3.5mm Headphone Jack Adapter, USB-C to 3.5mm Headphone Jack Adapter, 0, volume: 0.138
* Format: 256k Log Swept Sine, 1 sweep at -12.0 dBFS with no timing reference
* Dated: Sep 14, 2023 4:11:33 PM
* REW Settings:
*  C-weighting compensation: Off
*  Target level: 75.0 dB
* Note: ; 
* Measurement: (null EQ) R
* Smoothing: None
* Frequency Step: 1/48 octave
* Start Frequency: 20.300 Hz
*
* Freq(Hz)	SPL(dB)	Phase(degrees)
20.299999	100.958534	-160.5377
20.600000	100.957443	-161.3065
20.900000	100.963356	-161.9558
21.200001	100.978111	-162.5901
21.400000	100.990570	-163.0183
21.799999	101.010788	-163.8792
22.000000	101.014267	-164.2966
22.400000	101.004295	-165.0625
22.700001	100.984467	-165.5528
23.000000	100.960037	-165.9858
23.299999	100.936386	-166.4050
23.600000	100.916183	-166.8668
24.000000	100.892311	-167.6234
24.299999	100.872505	-168.2990
24.700001	100.840591	-169.2774
25.000000	100.815559	-169.9991
25.400000	100.789452	-170.8739
25.799999	100.779442	-171.6399
26.200001	100.782509	-172.3455
26.500000	100.785423	-172.8619
26.900000	100.778702	-173.5292
27.200001	100.762421	-173.9939
27.600000	100.730453	-174.5437
28.000000	100.697372	-175.0334
28.500000	100.666824	-175.6584
29.000000	100.643829	-176.3877
29.500000	100.614594	-177.1799
30.000000	100.576065	-177.9086
30.400000	100.545380	-178.4090
30.700001	100.525841	-178.7548
31.100000	100.504379	-179.2191
31.500000	100.483566	-179.7188
32.000000	100.450920	179.6193
32.500000	100.410034	178.9795
33.000000	100.368744	178.4106
33.500000	100.334106	177.8963
34.000000	100.305283	177.3826
34.500000	100.275452	176.8366
35.000000	100.239021	176.2740
35.500000	100.197372	175.7364
36.000000	100.157570	175.2448
36.500000	100.124329	174.7768
37.000000	100.093864	174.2968
37.500000	100.058052	173.8050
38.200001	99.996506	173.1607
38.700001	99.953163	172.7377
39.500000	99.891113	172.0344
40.000000	99.849480	171.6002
40.599998	99.800049	171.1778
41.200001	99.766144	170.8190
41.799999	99.743393	170.3585
42.500000	99.697777	169.6602
43.099998	99.637993	169.1219
43.700001	99.586113	168.7287
44.400002	99.547157	168.2925
45.000000	99.508347	167.8741
45.500000	99.464302	167.5609
46.200001	99.403091	167.2001
46.799999	99.362350	166.8499
47.500000	99.314064	166.3475
48.200001	99.255753	165.8967
48.700001	99.214394	165.6434
49.400002	99.160622	165.3007
50.000000	99.116257	164.9738
50.799999	99.063995	164.5054
51.500000	99.019844	164.1104
52.200001	98.965843	163.8183
53.000000	98.899872	163.5414
53.799999	98.831154	163.1063
54.500000	98.777824	162.7308
55.200001	98.754608	162.4619
56.000000	98.711609	162.1496
57.000000	98.573891	161.9621
58.000000	98.506912	160.9009
59.000000	98.359497	158.9904
60.000000	98.256569	159.5710
60.799999	98.352913	160.3291
61.500000	98.345322	160.1530
62.200001	98.237183	159.9448
63.000000	98.167770	159.7781
64.000000	98.129692	159.2549
65.000000	98.056198	159.1282
66.000000	97.991119	158.8864
67.000000	97.914093	158.5078
68.000000	97.856300	158.2677
69.000000	97.782677	158.0853
70.000000	97.715141	157.8611
71.000000	97.655373	157.5432
72.000000	97.592834	157.3487
73.000000	97.527664	157.1912
74.000000	97.462021	157.0030
75.000000	97.398468	156.8102
76.199997	97.320045	156.6161
77.500000	97.239075	156.3752
78.800003	97.162819	156.1962
80.000000	97.095978	156.0282
81.199997	97.024849	155.8404
82.500000	96.947472	155.6940
83.800003	96.869164	155.5789
85.000000	96.795280	155.4567
86.199997	96.734398	155.3007
87.500000	96.663582	155.1776
88.500000	96.609573	155.1058
90.000000	96.527420	154.9578
91.199997	96.462234	154.8797
92.500000	96.389618	154.7534
93.800003	96.319221	154.6679
95.000000	96.259354	154.6189
96.199997	96.198112	154.5627
97.500000	96.127083	154.4588
98.800003	96.064110	154.4135
100.000000	96.004509	154.3843
101.500000	95.929810	154.3426
103.000000	95.857162	154.3213
104.400002	95.790474	154.2904
106.000000	95.711113	154.2630
107.500000	95.644661	154.2332
109.000000	95.576050	154.2408
110.599998	95.500343	154.1995
112.000000	95.440834	154.2080
113.800003	95.353661	154.2116
115.000000	95.300873	154.2285
117.199997	95.208687	154.2532
118.000000	95.170074	154.2971
120.599998	95.059509	154.3309
122.000000	94.997330	154.3752
124.099998	94.913353	154.4730
125.000000	94.872147	154.5015
126.500000	94.815689	154.5458
128.000000	94.753632	154.6176
131.500000	94.630562	154.8011
132.000000	94.611755	154.8213
134.000000	94.541908	154.9272
136.000000	94.467400	154.9835
138.000000	94.395241	155.0477
140.000000	94.322433	155.1315
143.000000	94.202499	155.2842
145.000000	94.130142	155.3536
147.500000	94.035385	155.5179
150.000000	93.933769	155.6695
152.500000	93.840820	155.8354
155.000000	93.739105	155.9958
157.500000	93.643570	156.2563
160.000000	93.534752	156.4810
162.500000	93.414261	156.7407
165.000000	93.310638	157.0279
167.500000	93.183746	157.3972
170.000000	93.039597	157.8535
172.500000	92.888336	158.4667
175.000000	92.725388	159.3776
177.500000	92.565620	160.6996
180.000000	92.434311	162.6783
182.500000	92.438019	165.4352
185.000000	92.709229	168.0269
187.500000	93.154549	168.9190
190.000000	93.493759	168.0219
192.500000	93.659477	166.6090
195.000000	93.699020	165.3663
197.500000	93.667953	164.4476
200.000000	93.614044	163.7185
203.000000	93.538399	163.1499
206.000000	93.443634	162.8156
209.000000	93.345436	162.6425
212.000000	93.283905	162.5992
214.000000	93.230133	162.5669
218.000000	93.129692	162.6752
220.000000	93.081154	162.7731
224.000000	92.998360	162.9647
227.000000	92.947433	163.0818
230.000000	92.887650	163.1795
233.000000	92.834198	163.4272
236.000000	92.790771	163.6308
240.000000	92.722336	163.8251
243.000000	92.669769	163.9482
247.000000	92.604317	164.3431
250.000000	92.558441	164.4823
254.000000	92.495964	164.7885
258.000000	92.438461	165.0482
262.000000	92.377182	165.3561
265.000000	92.349380	165.6217
269.000000	92.296402	165.8275
272.000000	92.254295	166.1356
276.000000	92.215942	166.4161
280.000000	92.173157	166.7209
285.000000	92.111389	167.1564
290.000000	92.058212	167.5403
295.000000	92.011177	167.9232
300.000000	91.963585	168.3062
304.000000	91.921448	168.6506
307.000000	91.903229	168.8685
311.000000	91.868225	169.2273
315.000000	91.829147	169.4705
320.000000	91.789375	169.9208
325.000000	91.757294	170.3116
330.000000	91.697487	170.6582
335.000000	91.678307	171.1726
340.000000	91.639297	171.5408
345.000000	91.609055	171.8646
350.000000	91.574860	172.3568
355.000000	91.537384	172.6298
360.000000	91.516579	173.0290
365.000000	91.480667	173.3977
370.000000	91.451973	173.7890
375.000000	91.429443	174.2274
382.000000	91.384476	174.7351
387.000000	91.358856	175.1251
395.000000	91.326126	175.7580
400.000000	91.305344	176.1554
406.000000	91.287872	176.5658
412.000000	91.265503	177.0007
418.000000	91.236946	177.4089
425.000000	91.214775	177.8545
431.000000	91.190269	178.2120
437.000000	91.170837	178.6347
444.000000	91.137604	179.1507
450.000000	91.121002	179.5542
455.000000	91.099716	179.8929
462.000000	91.076805	-179.6531
468.000000	91.068909	-179.2774
475.000000	91.041458	-178.8288
482.000000	91.021042	-178.3710
487.000000	91.014511	-178.0632
494.000000	90.985428	-177.6157
500.000000	90.978622	-177.2002
508.000000	90.959000	-176.7372
515.000000	90.953415	-176.2542
522.000000	90.931747	-175.8571
530.000000	90.917534	-175.4097
538.000000	90.900795	-174.8740
545.000000	90.886307	-174.4177
552.000000	90.880669	-174.0067
560.000000	90.866287	-173.4944
570.000000	90.853088	-172.8887
580.000000	90.840935	-172.2776
590.000000	90.828873	-171.6728
600.000000	90.815918	-171.1111
608.000000	90.819344	-170.6396
615.000000	90.808800	-170.2005
622.000000	90.800255	-169.8297
630.000000	90.797890	-169.2798
640.000000	90.787613	-168.7130
650.000000	90.779564	-168.0857
660.000000	90.787094	-167.4977
670.000000	90.779770	-166.9035
680.000000	90.782982	-166.3215
690.000000	90.777145	-165.7617
700.000000	90.784836	-165.1026
710.000000	90.785889	-164.4731
720.000000	90.789261	-163.8549
730.000000	90.798187	-163.2168
740.000000	90.809509	-162.5668
750.000000	90.823509	-161.9182
762.000000	90.838867	-161.0981
775.000000	90.860107	-160.2813
788.000000	90.882812	-159.3670
800.000000	90.910805	-158.5577
812.000000	90.953331	-157.7093
825.000000	90.986931	-156.8719
838.000000	91.031410	-156.0220
850.000000	91.067078	-155.2085
862.000000	91.112457	-154.4159
875.000000	91.169830	-153.5605
885.000000	91.210846	-152.9053
900.000000	91.282486	-151.9665
912.000000	91.338364	-151.1420
925.000000	91.411018	-150.3559
938.000000	91.479652	-149.5923
950.000000	91.550766	-148.8454
962.000000	91.632164	-148.1729
975.000000	91.712051	-147.4628
988.000000	91.806778	-146.7435
1000.000000	91.889313	-146.1097
1015.000000	92.000443	-145.3076
1030.000000	92.121162	-144.6284
1044.000000	92.227257	-143.9770
1060.000000	92.341850	-143.3159
1075.000000	92.475670	-142.7325
1090.000000	92.593010	-142.2287
1106.000000	92.733421	-141.6822
1120.000000	92.840927	-141.2294
1138.000000	92.993927	-140.7476
1150.000000	93.097351	-140.4722
1172.000000	93.274788	-139.9658
1180.000000	93.337463	-139.8559
1206.000000	93.541748	-139.4668
1220.000000	93.643929	-139.1810
1241.000000	93.809937	-138.9669
1250.000000	93.873993	-138.8473
1265.000000	93.976837	-138.6991
1280.000000	94.079445	-138.5606
1315.000000	94.321426	-138.2985
1320.000000	94.352852	-138.2863
1340.000000	94.468613	-138.1906
1360.000000	94.594162	-138.0966
1380.000000	94.708237	-138.0234
1400.000000	94.832474	-137.9690
1430.000000	95.004044	-137.8792
1450.000000	95.113930	-137.7805
1475.000000	95.246902	-137.7399
1500.000000	95.387909	-137.7094
1525.000000	95.514206	-137.6614
1550.000000	95.646423	-137.6381
1575.000000	95.782944	-137.6280
1600.000000	95.906555	-137.6398
1625.000000	96.038857	-137.6608
1650.000000	96.167862	-137.6984
1675.000000	96.299759	-137.7826
1700.000000	96.433197	-137.8520
1725.000000	96.559578	-137.9426
1750.000000	96.693085	-138.1040
1775.000000	96.820694	-138.2256
1800.000000	96.937256	-138.4486
1825.000000	97.077011	-138.6737
1850.000000	97.200851	-138.8893
1875.000000	97.330864	-139.2302
1900.000000	97.459244	-139.5334
1925.000000	97.580704	-139.8519
1950.000000	97.701599	-140.2307
1975.000000	97.811478	-140.6572
2000.000000	97.937004	-141.0977
2030.000000	98.073402	-141.6997
2060.000000	98.209190	-142.3556
2090.000000	98.334152	-143.0634
2120.000000	98.456474	-143.8321
2140.000000	98.534668	-144.3477
2180.000000	98.662186	-145.4539
2200.000000	98.730545	-146.0616
2240.000000	98.845627	-147.2021
2270.000000	98.912895	-148.0406
2300.000000	98.985168	-148.9628
2330.000000	99.037926	-149.8135
2360.000000	99.083145	-150.6766
2400.000000	99.129997	-151.8120
2430.000000	99.148033	-152.6314
2470.000000	99.162262	-153.6906
2500.000000	99.156738	-154.4952
2540.000000	99.154358	-155.5002
2580.000000	99.129395	-156.4127
2620.000000	99.089310	-157.3523
2650.000000	99.052574	-157.7964
2690.000000	99.016685	-158.5617
2720.000000	98.965431	-159.0235
2760.000000	98.907051	-159.6685
2800.000000	98.861977	-160.1930
2850.000000	98.777473	-160.7481
2900.000000	98.707939	-161.2894
2950.000000	98.636307	-161.4989
3000.000000	98.577728	-161.8186
3040.000000	98.528000	-162.0171
3070.000000	98.503044	-162.1793
3110.000000	98.458405	-162.2209
3150.000000	98.422798	-162.3403
3200.000000	98.368256	-162.4339
3250.000000	98.326828	-162.5643
3300.000000	98.287155	-162.5606
3350.000000	98.253082	-162.5202
3400.000000	98.229630	-162.3936
3450.000000	98.217712	-162.2382
3500.000000	98.226669	-162.1239
3550.000000	98.252487	-162.0350
3600.000000	98.279259	-161.9932
3650.000000	98.306625	-162.0460
3700.000000	98.323647	-162.1074
3750.000000	98.362793	-162.1448
3820.000000	98.422516	-162.2140
3870.000000	98.465820	-162.3680
3950.000000	98.541809	-162.7447
4000.000000	98.596756	-163.0400
4060.000000	98.660439	-163.4509
4120.000000	98.718140	-164.0363
4180.000000	98.768784	-164.7704
4250.000000	98.802910	-165.7775
4310.000000	98.804382	-166.6505
4370.000000	98.793282	-167.5844
4440.000000	98.745148	-168.6017
4500.000000	98.702377	-169.4185
4550.000000	98.657677	-170.0782
4620.000000	98.591049	-170.9474
4680.000000	98.536636	-171.7605
4750.000000	98.461372	-172.7715
4820.000000	98.375008	-173.8075
4870.000000	98.296448	-174.6147
4940.000000	98.158615	-175.7268
5000.000000	98.020271	-176.6933
5080.000000	97.805145	-177.8505
5150.000000	97.575287	-178.7017
5220.000000	97.317978	-179.3375
5300.000000	97.033218	-179.8011
5380.000000	96.740295	-179.9418
5450.000000	96.510651	-179.8732
5520.000000	96.282829	-179.7506
5600.000000	96.035088	-179.5026
5700.000000	95.729912	-178.9913
5800.000000	95.443382	-178.3162
5900.000000	95.176056	-177.4095
6000.000000	94.928665	-176.4239
6080.000000	94.745064	-175.5869
6150.000000	94.598053	-174.7426
6220.000000	94.452812	-173.8480
6300.000000	94.311356	-172.8045
6400.000000	94.150795	-171.3358
6500.000000	94.019081	-169.7793
6600.000000	93.915070	-168.1714
6700.000000	93.850410	-166.4290
6800.000000	93.842064	-164.6216
6900.000000	93.893585	-162.7533
7000.000000	94.019608	-161.0766
7100.000000	94.222878	-159.6684
7200.000000	94.485291	-158.6138
7300.000000	94.812126	-157.9713
7400.000000	95.190964	-157.9353
7500.000000	95.596664	-158.5843
7620.000000	96.112267	-160.4369
7750.000000	96.666481	-164.1333
7880.000000	97.085831	-169.9343
8000.000000	97.198196	-176.9414
8120.000000	96.932655	175.3771
8250.000000	96.199097	167.9260
8380.000000	95.186646	162.3050
8500.000000	94.124176	158.8062
8620.000000	93.025909	156.7461
8750.000000	91.848343	155.8298
8850.000000	90.938957	155.9753
9000.000000	89.637810	157.4072
9120.000000	88.661095	159.1910
9250.000000	87.615746	161.9716
9380.000000	86.644638	165.7076
9500.000000	85.806320	169.9004
9620.000000	84.984879	174.7450
9750.000000	84.228775	-178.6927
9880.000000	83.670677	-170.9600
10000.000000	83.390419	-162.8803
10150.000000	83.438354	-152.0808
10300.000000	84.148109	-141.2031
10440.000000	85.407669	-134.3673
10600.000000	87.057648	-133.0000
10750.000000	88.133926	-135.9921
10900.000000	88.735733	-139.9521
11060.000000	88.985542	-143.7905
11200.000000	89.062599	-146.3335
11380.000000	89.075890	-148.4474
11500.000000	89.096191	-149.4673
11720.000000	89.202255	-150.8450
11800.000000	89.275208	-151.2342
12060.000000	89.612694	-152.8721
12200.000000	89.880447	-154.0346
12410.000000	90.343796	-156.6822
12500.000000	90.589333	-158.2726
12650.000000	90.984764	-161.4773
12800.000000	91.377289	-165.5734
13150.000000	92.006348	-178.3823
13200.000000	92.057846	179.4269
13400.000000	92.058273	170.5952
13600.000000	91.841011	161.9996
13800.000000	91.464951	153.9643
14000.000000	91.065804	146.8306
14300.000000	90.503349	137.1563
14500.000000	90.229187	130.8130
14750.000000	89.958702	122.0756
15000.000000	89.715820	112.9685
15250.000000	89.501266	103.8734
15500.000000	89.537918	94.5806
15750.000000	89.883362	83.8630
16000.000000	90.556900	72.6716
16250.000000	91.210297	53.5963
16500.000000	92.224609	31.8267
16750.000000	93.076218	1.3280
17000.000000	92.553108	-37.5481
17250.000000	90.164291	-74.4872
17500.000000	87.136856	-103.9088
17750.000000	84.209976	-128.6884
18000.000000	81.758560	-152.2903
18250.000000	79.590912	-176.5525
18500.000000	77.832993	156.3018
18750.000000	76.154419	124.2991
19000.000000	46.146755	58.0337
19250.000000	15.425362	-41.2236
19500.000000	27.884750	2.8398
19750.000000	35.525555	-47.0430
