* Measurement data measured by REW V5.20
* Source: USB-C to 3.5mm Headphone Jack Adapter, USB-C to 3.5mm Headphone Jack Adapter, 0, volume: 0.138
* Format: 256k Log Swept Sine, 1 sweep at -12.0 dBFS with no timing reference
* Dated: Dec 11, 2023 5:25:53 PM
* REW Settings:
*  C-weighting compensation: Off
*  Target level: 75.0 dB
* Note: ; 
* Measurement: (2-pin) L
* Smoothing: None
* Frequency Step: 1/48 octave
* Start Frequency: 20.300 Hz
*
* Freq(Hz)	SPL(dB)	Phase(degrees)
20.299999	103.985352	-170.4402
20.600000	103.983818	-171.0821
20.900000	103.973801	-171.6743
21.200001	103.960251	-172.2671
21.400000	103.950287	-172.6592
21.799999	103.929749	-173.4176
22.000000	103.919838	-173.7755
22.400000	103.901978	-174.4383
22.700001	103.891205	-174.8901
23.000000	103.882790	-175.3166
23.299999	103.875931	-175.7367
23.600000	103.869041	-176.1696
24.000000	103.856483	-176.7886
24.299999	103.842834	-177.2849
24.700001	103.818863	-177.9717
25.000000	103.798393	-178.4863
25.400000	103.771439	-179.1485
25.799999	103.748199	-179.7710
26.200001	103.728745	179.6446
26.500000	103.714706	179.2266
26.900000	103.693153	178.6927
27.200001	103.673279	178.3091
27.600000	103.642006	177.8172
28.000000	103.608032	177.3383
28.500000	103.567856	176.7313
29.000000	103.534729	176.0894
29.500000	103.507973	175.4186
30.000000	103.483566	174.7565
30.400000	103.462875	174.2555
30.700001	103.445251	173.9008
31.100000	103.417465	173.4539
31.500000	103.384262	173.0329
32.000000	103.338005	172.5381
32.500000	103.293884	172.0644
33.000000	103.258644	171.5781
33.500000	103.230713	171.0547
34.000000	103.201660	170.5191
34.500000	103.166534	170.0328
35.000000	103.129044	169.6264
35.500000	103.094566	169.2569
36.000000	103.061104	168.8538
36.500000	103.021820	168.4043
37.000000	102.975929	167.9631
37.500000	102.931488	167.5746
38.200001	102.882828	167.0704
38.700001	102.851410	166.6827
39.500000	102.788864	166.0447
40.000000	102.746056	165.6720
40.599998	102.699463	165.2353
41.200001	102.658485	164.7974
41.799999	102.621002	164.3729
42.500000	102.575310	163.8823
43.099998	102.523582	163.4628
43.700001	102.461098	163.0862
44.400002	102.395782	162.6653
45.000000	102.348053	162.2274
45.500000	102.302246	161.8562
46.200001	102.230705	161.5369
46.799999	102.184151	161.4696
47.500000	102.147018	161.3857
48.200001	102.100792	161.2023
48.700001	102.067093	161.0583
49.400002	102.040794	160.7558
50.000000	102.025269	160.3167
50.799999	101.981064	159.6727
51.500000	101.931885	159.2365
52.200001	101.884346	158.8151
53.000000	101.817703	158.3202
53.799999	101.753113	157.9320
54.500000	101.708878	157.5989
55.200001	101.656487	157.2422
56.000000	101.584694	156.9283
57.000000	101.511177	156.5702
58.000000	101.432793	156.1218
59.000000	101.349403	155.8762
60.000000	101.289162	155.6162
60.799999	101.227783	155.2905
61.500000	101.168846	155.0480
62.200001	101.119865	154.8177
63.000000	101.065582	154.5409
64.000000	100.998962	154.3000
65.000000	100.940437	154.0198
66.000000	100.866455	153.7037
67.000000	100.799057	153.4314
68.000000	100.735748	153.1396
69.000000	100.673004	152.8461
70.000000	100.603188	152.5580
71.000000	100.540283	152.3557
72.000000	100.474106	152.1010
73.000000	100.396973	151.9341
74.000000	100.348206	151.6836
75.000000	100.283936	151.3275
76.199997	100.200958	151.2247
77.500000	100.119682	151.0409
78.800003	100.031334	150.6943
80.000000	99.946320	150.4745
81.199997	99.881447	150.3502
82.500000	99.796806	150.1061
83.800003	99.716942	149.9017
85.000000	99.642113	149.7293
86.199997	99.570267	149.5737
87.500000	99.496765	149.3936
88.500000	99.434181	149.2831
90.000000	99.341293	149.1172
91.199997	99.265862	148.9958
92.500000	99.195580	148.8587
93.800003	99.116798	148.7627
95.000000	99.050102	148.6572
96.199997	98.981934	148.5386
97.500000	98.910080	148.4773
98.800003	98.835968	148.3758
100.000000	98.766876	148.3154
101.500000	98.689354	148.2250
103.000000	98.609779	148.1444
104.400002	98.537415	148.1134
106.000000	98.455124	148.0412
107.500000	98.382332	147.9954
109.000000	98.304039	148.0025
110.599998	98.226471	147.9552
112.000000	98.163559	147.9258
113.800003	98.078133	147.9036
115.000000	98.025826	147.8387
117.199997	97.927391	147.8247
118.000000	97.885117	147.8186
120.599998	97.767563	147.7142
122.000000	97.712982	147.7875
124.099998	97.613213	147.7620
125.000000	97.571976	147.7530
126.500000	97.507072	147.7802
128.000000	97.442284	147.7712
131.500000	97.295029	147.8414
132.000000	97.274689	147.8533
134.000000	97.192848	147.9048
136.000000	97.109772	147.9114
138.000000	97.031639	148.0150
140.000000	96.948555	148.0643
143.000000	96.833435	148.1749
145.000000	96.758118	148.2485
147.500000	96.666779	148.3880
150.000000	96.577415	148.4856
152.500000	96.487350	148.6356
155.000000	96.401184	148.7595
157.500000	96.318764	148.9102
160.000000	96.242340	149.0119
162.500000	96.155449	149.1844
165.000000	96.079147	149.3341
167.500000	95.996277	149.4773
170.000000	95.919373	149.6596
172.500000	95.840370	149.7846
175.000000	95.768105	149.9941
177.500000	95.690903	150.1660
180.000000	95.619354	150.3468
182.500000	95.542946	150.5573
185.000000	95.479141	150.7788
187.500000	95.419373	150.9939
190.000000	95.358650	151.2078
192.500000	95.297684	151.4154
195.000000	95.245209	151.5852
197.500000	95.188446	151.7524
200.000000	95.133881	151.9050
203.000000	95.057617	152.1178
206.000000	94.986755	152.3425
209.000000	94.917625	152.5717
212.000000	94.854385	152.8014
214.000000	94.808945	152.9379
218.000000	94.721130	153.2581
220.000000	94.680138	153.4374
224.000000	94.595078	153.7577
227.000000	94.535446	154.0239
230.000000	94.480644	154.2369
233.000000	94.420578	154.4664
236.000000	94.367264	154.7504
240.000000	94.290924	155.0098
243.000000	94.234970	155.3307
247.000000	94.165390	155.6674
250.000000	94.113937	155.8873
254.000000	94.044098	156.2519
258.000000	93.979248	156.5827
262.000000	93.915535	156.9428
265.000000	93.869370	157.2032
269.000000	93.805313	157.5275
272.000000	93.755295	157.7698
276.000000	93.701698	158.1370
280.000000	93.639786	158.4743
285.000000	93.574287	158.9083
290.000000	93.506813	159.3232
295.000000	93.441505	159.7679
300.000000	93.375534	160.2063
304.000000	93.326149	160.5371
307.000000	93.293442	160.7942
311.000000	93.244789	161.1521
315.000000	93.198135	161.4953
320.000000	93.141296	161.9124
325.000000	93.089798	162.3517
330.000000	93.034492	162.7923
335.000000	92.983826	163.2061
340.000000	92.931290	163.6315
345.000000	92.882835	164.0631
350.000000	92.838852	164.4843
355.000000	92.794052	164.9166
360.000000	92.743889	165.3409
365.000000	92.702774	165.7928
370.000000	92.661957	166.2159
375.000000	92.623642	166.6335
382.000000	92.575714	167.2565
387.000000	92.540207	167.6706
395.000000	92.489441	168.3050
400.000000	92.456635	168.7007
406.000000	92.417496	169.1828
412.000000	92.378235	169.6354
418.000000	92.335587	170.1323
425.000000	92.292114	170.6320
431.000000	92.262772	171.1501
437.000000	92.237274	171.6359
444.000000	92.187805	172.1534
450.000000	92.160515	172.6354
455.000000	92.139389	172.9753
462.000000	92.101456	173.5619
468.000000	92.072365	174.0160
475.000000	92.047539	174.5427
482.000000	92.018112	175.0857
487.000000	91.990387	175.4417
494.000000	91.959991	175.9875
500.000000	91.939941	176.4082
508.000000	91.911026	177.0327
515.000000	91.886429	177.5504
522.000000	91.865021	178.0809
530.000000	91.841415	178.6730
538.000000	91.815353	179.2820
545.000000	91.790466	179.8193
552.000000	91.773621	-179.6802
560.000000	91.755707	-179.0833
570.000000	91.731911	-178.3362
580.000000	91.706985	-177.6234
590.000000	91.687119	-176.8714
600.000000	91.664459	-176.1585
608.000000	91.654289	-175.5816
615.000000	91.641266	-175.0788
622.000000	91.631958	-174.5697
630.000000	91.622101	-174.0111
640.000000	91.600922	-173.2672
650.000000	91.598083	-172.5265
660.000000	91.589302	-171.8351
670.000000	91.575562	-171.1702
680.000000	91.566750	-170.4240
690.000000	91.561920	-169.6741
700.000000	91.565994	-168.9295
710.000000	91.553459	-168.1674
720.000000	91.547050	-167.4620
730.000000	91.552261	-166.7103
740.000000	91.547073	-165.9078
750.000000	91.565239	-165.1924
762.000000	91.566864	-164.2448
775.000000	91.590225	-163.2408
788.000000	91.611557	-162.2557
800.000000	91.631264	-161.3434
812.000000	91.664131	-160.4342
825.000000	91.697311	-159.4528
838.000000	91.737915	-158.4848
850.000000	91.781525	-157.6082
862.000000	91.824394	-156.7406
875.000000	91.872978	-155.7626
885.000000	91.915466	-155.0576
900.000000	91.988213	-153.9854
912.000000	92.045547	-153.1571
925.000000	92.112335	-152.2687
938.000000	92.183899	-151.3671
950.000000	92.259399	-150.6026
962.000000	92.333992	-149.8307
975.000000	92.414940	-149.0136
988.000000	92.509079	-148.2239
1000.000000	92.594948	-147.5363
1015.000000	92.704552	-146.6492
1030.000000	92.819397	-145.8668
1044.000000	92.928062	-145.1319
1060.000000	93.055374	-144.3651
1075.000000	93.177406	-143.6897
1090.000000	93.302994	-143.0557
1106.000000	93.435837	-142.4091
1120.000000	93.546448	-141.9107
1138.000000	93.702744	-141.2739
1150.000000	93.799835	-140.8801
1172.000000	93.976761	-140.2193
1180.000000	94.047951	-140.0251
1206.000000	94.253723	-139.3730
1220.000000	94.367058	-139.0579
1241.000000	94.531906	-138.6221
1250.000000	94.598114	-138.4362
1265.000000	94.707443	-138.1712
1280.000000	94.822906	-137.9234
1315.000000	95.074455	-137.3907
1320.000000	95.110924	-137.3135
1340.000000	95.249420	-137.0490
1360.000000	95.389877	-136.7846
1380.000000	95.528915	-136.5408
1400.000000	95.661514	-136.3361
1430.000000	95.863419	-136.0556
1450.000000	95.995705	-135.8843
1475.000000	96.161041	-135.7079
1500.000000	96.323975	-135.5702
1525.000000	96.485855	-135.4661
1550.000000	96.643494	-135.3705
1575.000000	96.797386	-135.3215
1600.000000	96.951263	-135.3003
1625.000000	97.104431	-135.3056
1650.000000	97.250130	-135.3444
1675.000000	97.397484	-135.3949
1700.000000	97.539917	-135.4765
1725.000000	97.680901	-135.5670
1750.000000	97.822060	-135.7061
1775.000000	97.960281	-135.8548
1800.000000	98.095238	-136.0353
1825.000000	98.230431	-136.2277
1850.000000	98.362473	-136.4420
1875.000000	98.491699	-136.7029
1900.000000	98.620056	-136.9752
1925.000000	98.743576	-137.2826
1950.000000	98.868469	-137.6059
1975.000000	98.986298	-137.9615
2000.000000	99.104080	-138.3772
2030.000000	99.237473	-138.8697
2060.000000	99.365181	-139.4263
2090.000000	99.484070	-140.0030
2120.000000	99.597702	-140.6236
2140.000000	99.666092	-141.0538
2180.000000	99.796349	-141.9209
2200.000000	99.854462	-142.3684
2240.000000	99.964020	-143.2776
2270.000000	100.036766	-143.9722
2300.000000	100.098961	-144.6478
2330.000000	100.153275	-145.3280
2360.000000	100.201042	-146.0088
2400.000000	100.253143	-146.8700
2430.000000	100.287445	-147.5120
2470.000000	100.319969	-148.3293
2500.000000	100.338791	-148.8990
2540.000000	100.355515	-149.6405
2580.000000	100.367271	-150.3142
2620.000000	100.375710	-150.9400
2650.000000	100.376877	-151.3934
2690.000000	100.378777	-151.9257
2720.000000	100.379997	-152.2982
2760.000000	100.379852	-152.7580
2800.000000	100.382423	-153.1877
2850.000000	100.386368	-153.6719
2900.000000	100.394753	-154.1362
2950.000000	100.409554	-154.5406
3000.000000	100.431915	-154.9659
3040.000000	100.452057	-155.2951
3070.000000	100.468674	-155.5591
3110.000000	100.493927	-155.9265
3150.000000	100.523285	-156.3012
3200.000000	100.564903	-156.8237
3250.000000	100.606873	-157.4045
3300.000000	100.646538	-158.0430
3350.000000	100.691002	-158.7551
3400.000000	100.728264	-159.5352
3450.000000	100.762238	-160.4040
3500.000000	100.789970	-161.3160
3550.000000	100.805298	-162.3362
3600.000000	100.812202	-163.3991
3650.000000	100.804855	-164.5397
3700.000000	100.778732	-165.7152
3750.000000	100.737915	-166.9330
3820.000000	100.651443	-168.6392
3870.000000	100.569160	-169.8643
3950.000000	100.397263	-171.7475
4000.000000	100.268478	-172.8484
4060.000000	100.099106	-174.0548
4120.000000	99.922607	-175.1807
4180.000000	99.737946	-176.2106
4250.000000	99.521484	-177.3462
4310.000000	99.329033	-178.3453
4370.000000	99.123451	-179.3551
4440.000000	98.857445	179.4762
4500.000000	98.605743	178.5035
4550.000000	98.377853	177.7892
4620.000000	98.033020	176.8713
4680.000000	97.712456	176.2790
4750.000000	97.317421	175.7658
4820.000000	96.907730	175.5678
4870.000000	96.610199	175.6378
4940.000000	96.191803	175.9669
5000.000000	95.845444	176.5381
5080.000000	95.421768	177.5306
5150.000000	95.070679	178.5404
5220.000000	94.743088	179.7139
5300.000000	94.396210	-178.8773
5380.000000	94.070305	-177.3658
5450.000000	93.795143	-175.9367
5520.000000	93.535828	-174.4247
5600.000000	93.259895	-172.5060
5700.000000	92.960182	-170.0168
5800.000000	92.697250	-167.3299
5900.000000	92.497269	-164.5492
6000.000000	92.337433	-161.7187
6080.000000	92.241745	-159.4511
6150.000000	92.190399	-157.4127
6220.000000	92.162613	-155.4043
6300.000000	92.160217	-153.1045
6400.000000	92.214577	-150.2754
6500.000000	92.331818	-147.5289
6600.000000	92.494347	-145.0158
6700.000000	92.714951	-142.6888
6800.000000	92.994934	-140.5390
6900.000000	93.331154	-138.7595
7000.000000	93.715256	-137.2424
7100.000000	94.155190	-136.1084
7200.000000	94.651749	-135.5388
7300.000000	95.203827	-135.6209
7400.000000	95.779396	-136.5243
7500.000000	96.370232	-138.3367
7620.000000	97.046822	-141.8149
7750.000000	97.642647	-147.4202
7880.000000	97.968246	-154.5880
8000.000000	97.946907	-161.7950
8120.000000	97.606613	-168.6706
8250.000000	96.963837	-174.8390
8380.000000	96.185699	-179.4141
8500.000000	95.407074	177.6356
8620.000000	94.631790	175.7780
8750.000000	93.817230	174.8018
8850.000000	93.245697	174.5354
9000.000000	92.450165	174.9719
9120.000000	91.872131	175.7796
9250.000000	91.312973	176.9971
9380.000000	90.855537	178.7670
9500.000000	90.515533	-179.5085
9620.000000	90.277802	-177.8360
9750.000000	90.148430	-176.6796
9880.000000	89.941032	-175.7705
10000.000000	89.743469	-175.4657
10150.000000	89.376015	-174.6092
10300.000000	88.946739	-172.7095
10440.000000	88.614708	-169.5975
10600.000000	88.456596	-164.6876
10750.000000	88.638771	-159.1458
10900.000000	89.288979	-153.5728
11060.000000	90.499695	-149.8556
11200.000000	91.781837	-149.7803
11380.000000	93.359650	-153.5645
11500.000000	94.310661	-157.4831
11720.000000	96.010124	-167.1221
11800.000000	96.634476	-171.7020
12060.000000	98.407921	167.2281
12200.000000	98.807693	151.9020
12410.000000	98.145309	128.3717
12500.000000	97.494698	119.7693
12650.000000	96.186813	108.1211
12800.000000	94.850037	99.5176
13150.000000	92.155373	86.1667
13200.000000	91.842667	84.8075
13400.000000	90.716072	79.5835
13600.000000	89.824944	74.8065
13800.000000	89.150101	70.1901
14000.000000	88.655914	65.4815
14300.000000	88.342438	58.0644
14500.000000	88.422096	52.2292
14750.000000	88.866257	42.8759
15000.000000	89.653419	30.4657
15250.000000	90.640083	14.0479
15500.000000	91.614716	-8.2345
15750.000000	92.082764	-36.2873
16000.000000	91.637962	-67.5480
16250.000000	90.325966	-97.9326
16500.000000	88.611557	-125.5856
16750.000000	86.955643	-151.3650
17000.000000	85.483772	-178.1331
17250.000000	84.001648	152.7966
17500.000000	82.309319	121.6105
17750.000000	80.380768	88.7619
18000.000000	78.277328	54.3264
18250.000000	76.130882	18.8754
18500.000000	74.080399	-18.9083
18750.000000	72.142609	-61.4315
19000.000000	70.201057	-109.5975
19250.000000	68.152908	-168.9119
19500.000000	66.473717	128.4148
19750.000000	63.887897	52.2688
