* Measurement data measured by REW V5.20
* Source: USB-C to 3.5mm Headphone Jack Adapter, USB-C to 3.5mm Headphone Jack Adapter, 0, volume: 0.138
* Format: 256k Log Swept Sine, 1 sweep at -12.0 dBFS with no timing reference
* Dated: Oct 30, 2023 3:33:31 PM
* REW Settings:
*  C-weighting compensation: Off
*  Target level: 75.0 dB
* Note: 
* Measurement: R
* Smoothing: None
* Frequency Step: 1/48 octave
* Start Frequency: 20.300 Hz
*
* Freq(Hz)	SPL(dB)	Phase(degrees)
20.299999	99.875526	-145.1881
20.600000	99.908562	-145.7611
20.900000	99.936302	-146.2998
21.200001	99.960770	-146.8665
21.400000	99.975388	-147.2588
21.799999	100.002014	-148.0582
22.000000	100.014847	-148.4559
22.400000	100.041138	-149.2320
22.700001	100.062225	-149.7884
23.000000	100.084244	-150.3204
23.299999	100.106506	-150.8282
23.600000	100.128273	-151.3142
24.000000	100.155518	-151.9376
24.299999	100.173950	-152.3967
24.700001	100.194656	-153.0096
25.000000	100.206474	-153.4714
25.400000	100.217346	-154.0815
25.799999	100.224922	-154.6703
26.200001	100.233185	-155.2331
26.500000	100.241623	-155.6451
26.900000	100.255760	-156.1952
27.200001	100.267281	-156.6134
27.600000	100.281693	-157.1723
28.000000	100.294411	-157.7186
28.500000	100.309570	-158.3703
29.000000	100.325211	-158.9967
29.500000	100.338501	-159.6074
30.000000	100.346642	-160.1831
30.400000	100.351295	-160.6039
30.700001	100.355896	-160.9003
31.100000	100.365143	-161.2891
31.500000	100.376984	-161.6947
32.000000	100.390678	-162.2352
32.500000	100.399849	-162.7856
33.000000	100.406708	-163.3137
33.500000	100.414696	-163.8227
34.000000	100.422607	-164.3326
34.500000	100.426819	-164.8401
35.000000	100.427269	-165.3228
35.500000	100.427673	-165.7763
36.000000	100.429993	-166.2236
36.500000	100.431801	-166.6808
37.000000	100.430573	-167.1338
37.500000	100.427963	-167.5617
38.200001	100.427757	-168.1348
38.700001	100.428612	-168.5532
39.500000	100.424301	-169.2173
40.000000	100.421074	-169.6045
40.599998	100.421150	-170.0675
41.200001	100.419983	-170.5559
41.799999	100.411140	-171.0254
42.500000	100.399261	-171.4818
43.099998	100.397797	-171.8489
43.700001	100.398468	-172.2722
44.400002	100.388840	-172.7883
45.000000	100.377777	-173.1630
45.500000	100.374924	-173.4402
46.200001	100.376663	-173.8596
46.799999	100.370377	-174.2575
47.500000	100.352249	-174.6964
48.200001	100.337402	-175.1028
48.700001	100.332596	-175.4059
49.400002	100.328712	-175.8475
50.000000	100.324646	-176.2067
50.799999	100.317932	-176.6476
51.500000	100.309074	-177.0382
52.200001	100.294083	-177.4479
53.000000	100.271011	-177.8806
53.799999	100.254204	-178.2239
54.500000	100.249016	-178.5185
55.200001	100.240646	-178.8667
56.000000	100.220413	-179.2754
57.000000	100.197556	-179.7731
58.000000	100.173592	179.7582
59.000000	100.157990	179.4050
60.000000	100.144852	178.9244
60.799999	100.118347	178.5126
61.500000	100.099770	178.2057
62.200001	100.088127	177.9026
63.000000	100.072746	177.5841
64.000000	100.054871	177.2158
65.000000	100.030029	176.7823
66.000000	100.004456	176.3964
67.000000	99.985710	176.0043
68.000000	99.958931	175.6273
69.000000	99.930893	175.2498
70.000000	99.900543	174.8839
71.000000	99.875008	174.5364
72.000000	99.847252	174.2034
73.000000	99.825844	173.8881
74.000000	99.803024	173.5439
75.000000	99.781990	173.2276
76.199997	99.752670	172.8199
77.500000	99.718208	172.4694
78.800003	99.677910	172.0875
80.000000	99.641563	171.6857
81.199997	99.603615	171.3050
82.500000	99.581512	170.9354
83.800003	99.543213	170.6839
85.000000	99.502487	170.3326
86.199997	99.442558	170.0135
87.500000	99.412346	169.6684
88.500000	99.387741	169.4679
90.000000	99.355637	169.1490
91.199997	99.319305	168.8666
92.500000	99.280746	168.5615
93.800003	99.241936	168.3042
95.000000	99.203766	168.0500
96.199997	99.170731	167.8120
97.500000	99.130440	167.5574
98.800003	99.092415	167.3350
100.000000	99.054901	167.1053
101.500000	99.010277	166.8607
103.000000	98.966217	166.5945
104.400002	98.926102	166.3653
106.000000	98.884254	166.1332
107.500000	98.842987	165.8798
109.000000	98.803169	165.6346
110.599998	98.760750	165.3950
112.000000	98.721024	165.1902
113.800003	98.670593	164.9146
115.000000	98.634369	164.7061
117.199997	98.577538	164.4082
118.000000	98.550911	164.2972
120.599998	98.475281	163.9112
122.000000	98.432922	163.8125
124.099998	98.367073	163.5193
125.000000	98.341057	163.4332
126.500000	98.299362	163.2590
128.000000	98.251755	163.1044
131.500000	98.147614	162.7691
132.000000	98.134079	162.7321
134.000000	98.070137	162.5332
136.000000	98.015472	162.3854
138.000000	97.953590	162.2394
140.000000	97.896439	162.1293
143.000000	97.812897	161.9306
145.000000	97.757477	161.8352
147.500000	97.688141	161.7094
150.000000	97.626144	161.5809
152.500000	97.556137	161.4804
155.000000	97.492447	161.3922
157.500000	97.427010	161.3087
160.000000	97.366760	161.2403
162.500000	97.306488	161.1643
165.000000	97.247231	161.0929
167.500000	97.190056	161.0247
170.000000	97.123062	160.9374
172.500000	97.060699	160.8694
175.000000	96.997047	160.8554
177.500000	96.932144	160.8520
180.000000	96.867317	160.8744
182.500000	96.803680	160.9311
185.000000	96.750259	161.0049
187.500000	96.700073	161.1193
190.000000	96.656540	161.2540
192.500000	96.616257	161.3047
195.000000	96.605957	161.3077
197.500000	96.569565	161.3682
200.000000	96.527420	161.2310
203.000000	96.488106	161.1852
206.000000	96.431412	161.0568
209.000000	96.381874	161.0373
212.000000	96.316750	161.0219
214.000000	96.280815	160.9930
218.000000	96.208107	160.9932
220.000000	96.165779	160.9726
224.000000	96.095947	160.9558
227.000000	96.034027	160.9630
230.000000	95.974457	160.9902
233.000000	95.920166	161.0366
236.000000	95.862534	161.0435
240.000000	95.789131	161.1270
243.000000	95.734123	161.2020
247.000000	95.661354	161.3095
250.000000	95.609047	161.3735
254.000000	95.538216	161.4926
258.000000	95.467094	161.6270
262.000000	95.402382	161.7661
265.000000	95.351494	161.8485
269.000000	95.288513	162.0074
272.000000	95.241463	162.1236
276.000000	95.182587	162.2878
280.000000	95.117790	162.4449
285.000000	95.044876	162.6425
290.000000	94.974167	162.8823
295.000000	94.899071	163.1057
300.000000	94.830536	163.3358
304.000000	94.779739	163.5274
307.000000	94.737442	163.6677
311.000000	94.685608	163.8685
315.000000	94.634109	164.0535
320.000000	94.571976	164.3094
325.000000	94.510170	164.5771
330.000000	94.449936	164.8340
335.000000	94.393867	165.1152
340.000000	94.333862	165.3738
345.000000	94.277748	165.6400
350.000000	94.224686	165.9476
355.000000	94.172256	166.2274
360.000000	94.121269	166.5265
365.000000	94.069412	166.8264
370.000000	94.020226	167.1080
375.000000	93.973175	167.3911
382.000000	93.907074	167.7971
387.000000	93.857674	168.1085
395.000000	93.789795	168.5793
400.000000	93.747330	168.8856
406.000000	93.698593	169.2515
412.000000	93.649994	169.6266
418.000000	93.598297	169.9952
425.000000	93.542946	170.4120
431.000000	93.502304	170.7954
437.000000	93.460632	171.1683
444.000000	93.407677	171.5935
450.000000	93.368622	171.9822
455.000000	93.335228	172.3121
462.000000	93.290215	172.7473
468.000000	93.252640	173.1319
475.000000	93.209587	173.5811
482.000000	93.167709	174.0130
487.000000	93.136017	174.3460
494.000000	93.095871	174.8088
500.000000	93.066956	175.1705
508.000000	93.024567	175.7035
515.000000	92.989578	176.1390
522.000000	92.952148	176.6044
530.000000	92.916763	177.1430
538.000000	92.878914	177.6754
545.000000	92.852188	178.1259
552.000000	92.822128	178.5969
560.000000	92.789764	179.1320
570.000000	92.744812	179.7667
580.000000	92.711754	-179.5446
590.000000	92.678619	-178.8638
600.000000	92.647430	-178.2118
608.000000	92.619865	-177.6667
615.000000	92.600098	-177.2141
622.000000	92.581902	-176.7155
630.000000	92.560349	-176.1741
640.000000	92.535828	-175.4786
650.000000	92.519371	-174.7947
660.000000	92.492950	-174.1133
670.000000	92.472176	-173.4203
680.000000	92.459251	-172.7194
690.000000	92.446899	-172.0148
700.000000	92.435173	-171.3183
710.000000	92.423698	-170.5964
720.000000	92.413521	-169.8925
730.000000	92.410828	-169.1925
740.000000	92.405663	-168.4723
750.000000	92.403259	-167.7187
762.000000	92.405655	-166.8902
775.000000	92.407227	-165.9332
788.000000	92.420845	-164.9965
800.000000	92.431107	-164.1269
812.000000	92.446762	-163.2354
825.000000	92.462883	-162.2719
838.000000	92.493011	-161.3063
850.000000	92.521637	-160.4532
862.000000	92.549889	-159.5824
875.000000	92.589859	-158.6178
885.000000	92.626137	-157.8942
900.000000	92.682190	-156.8062
912.000000	92.733826	-155.9359
925.000000	92.788155	-155.0244
938.000000	92.856461	-154.1151
950.000000	92.920700	-153.2901
962.000000	92.987030	-152.4790
975.000000	93.067123	-151.6503
988.000000	93.153381	-150.7921
1000.000000	93.233376	-150.0504
1015.000000	93.342758	-149.1502
1030.000000	93.453354	-148.3043
1044.000000	93.562462	-147.5343
1060.000000	93.693031	-146.7030
1075.000000	93.817215	-145.9793
1090.000000	93.945473	-145.2985
1106.000000	94.084122	-144.6436
1120.000000	94.207062	-144.1200
1138.000000	94.361305	-143.4803
1150.000000	94.464996	-143.0912
1172.000000	94.657478	-142.4538
1180.000000	94.725021	-142.2497
1206.000000	94.948151	-141.6490
1220.000000	95.061592	-141.3770
1241.000000	95.231720	-141.0019
1250.000000	95.300896	-140.8482
1265.000000	95.417221	-140.6290
1280.000000	95.533859	-140.4403
1315.000000	95.785599	-140.0334
1320.000000	95.824463	-140.0008
1340.000000	95.960632	-139.8229
1360.000000	96.095131	-139.6703
1380.000000	96.227135	-139.5281
1400.000000	96.349228	-139.4045
1430.000000	96.533798	-139.2427
1450.000000	96.652267	-139.1375
1475.000000	96.796898	-139.0301
1500.000000	96.938629	-138.9271
1525.000000	97.077148	-138.8444
1550.000000	97.212540	-138.7543
1575.000000	97.347076	-138.7136
1600.000000	97.475151	-138.6516
1625.000000	97.604858	-138.6018
1650.000000	97.731537	-138.5734
1675.000000	97.857315	-138.5478
1700.000000	97.981544	-138.5459
1725.000000	98.101463	-138.5655
1750.000000	98.222504	-138.5802
1775.000000	98.340134	-138.6065
1800.000000	98.454384	-138.6361
1825.000000	98.566353	-138.6920
1850.000000	98.678207	-138.7099
1875.000000	98.784393	-138.7320
1900.000000	98.894463	-138.7138
1925.000000	99.008896	-138.6555
1950.000000	99.136314	-138.5585
1975.000000	99.284454	-138.4906
2000.000000	99.447449	-138.5689
2030.000000	99.651306	-138.9017
2060.000000	99.834984	-139.4753
2090.000000	99.991501	-140.1613
2120.000000	100.123154	-140.8723
2140.000000	100.202011	-141.3457
2180.000000	100.338219	-142.2836
2200.000000	100.396843	-142.7428
2240.000000	100.506844	-143.6378
2270.000000	100.574890	-144.2987
2300.000000	100.637215	-144.9448
2330.000000	100.687561	-145.5642
2360.000000	100.732033	-146.1450
2400.000000	100.783615	-146.8477
2430.000000	100.819794	-147.3304
2470.000000	100.875076	-147.9480
2500.000000	100.919693	-148.4288
2540.000000	100.970016	-149.1672
2580.000000	101.004906	-149.9494
2620.000000	101.015274	-150.7264
2650.000000	101.007523	-151.2530
2690.000000	100.989693	-151.8345
2720.000000	100.975502	-152.1974
2760.000000	100.960587	-152.5905
2800.000000	100.952980	-152.9584
2850.000000	100.944473	-153.4519
2900.000000	100.920769	-153.9520
2950.000000	100.887672	-154.3751
3000.000000	100.846725	-154.6852
3040.000000	100.815887	-154.8513
3070.000000	100.796387	-154.9338
3110.000000	100.775391	-155.0435
3150.000000	100.755089	-155.0951
3200.000000	100.735184	-155.1462
3250.000000	100.725853	-155.1486
3300.000000	100.725983	-155.1387
3350.000000	100.736595	-155.1599
3400.000000	100.756767	-155.2309
3450.000000	100.776474	-155.3768
3500.000000	100.797531	-155.5782
3550.000000	100.814201	-155.8059
3600.000000	100.827187	-156.0801
3650.000000	100.836861	-156.3618
3700.000000	100.847054	-156.6580
3750.000000	100.851227	-157.0053
3820.000000	100.853882	-157.4858
3870.000000	100.853958	-157.8663
3950.000000	100.856171	-158.4981
4000.000000	100.854874	-158.9822
4060.000000	100.848511	-159.6450
4120.000000	100.826538	-160.3679
4180.000000	100.792496	-161.1628
4250.000000	100.731735	-162.1393
4310.000000	100.664818	-162.9897
4370.000000	100.581688	-163.8516
4440.000000	100.466743	-164.8452
4500.000000	100.352150	-165.6924
4550.000000	100.246674	-166.3581
4620.000000	100.085197	-167.2934
4680.000000	99.931778	-168.0615
4750.000000	99.735237	-168.9160
4820.000000	99.519211	-169.7130
4870.000000	99.353439	-170.2344
4940.000000	99.105782	-170.8575
5000.000000	98.885483	-171.3129
5080.000000	98.578354	-171.7720
5150.000000	98.298416	-172.0388
5220.000000	98.009476	-172.1787
5300.000000	97.680756	-172.2014
5380.000000	97.340462	-171.9683
5450.000000	97.044556	-171.6322
5520.000000	96.754593	-171.1555
5600.000000	96.437019	-170.4052
5700.000000	96.059677	-169.2653
5800.000000	95.703506	-167.8355
5900.000000	95.383308	-166.1992
6000.000000	95.104134	-164.4028
6080.000000	94.907982	-162.8451
6150.000000	94.762901	-161.4379
6220.000000	94.641762	-159.9492
6300.000000	94.525284	-158.1973
6400.000000	94.433075	-155.9983
6500.000000	94.390877	-153.7532
6600.000000	94.405533	-151.5112
6700.000000	94.478271	-149.2769
6800.000000	94.611923	-147.1927
6900.000000	94.810524	-145.1980
7000.000000	95.069580	-143.3809
7100.000000	95.406998	-141.7607
7200.000000	95.816650	-140.4585
7300.000000	96.306244	-139.6033
7400.000000	96.870377	-139.3151
7500.000000	97.498169	-139.7036
7620.000000	98.327324	-141.3524
7750.000000	99.263939	-144.9764
7880.000000	100.145012	-150.8893
8000.000000	100.767357	-158.4088
8120.000000	101.060623	-167.3378
8250.000000	100.940552	-177.3545
8380.000000	100.439468	173.5738
8500.000000	99.754326	166.4865
8620.000000	98.920135	160.6556
8750.000000	97.922775	155.9210
8850.000000	97.146492	153.3286
9000.000000	96.006897	150.7329
9120.000000	95.136383	149.6536
9250.000000	94.260597	149.1886
9380.000000	93.466194	149.2728
9500.000000	92.762260	149.8030
9620.000000	92.136894	150.6516
9750.000000	91.515121	151.7033
9880.000000	90.946884	152.9459
10000.000000	90.491127	154.3215
10150.000000	89.931206	156.1313
10300.000000	89.489677	157.9246
10440.000000	89.118950	159.5571
10600.000000	88.732071	161.2471
10750.000000	88.441032	162.8608
10900.000000	88.177231	164.3922
11060.000000	87.950493	165.8738
11200.000000	87.803841	166.9980
11380.000000	87.654709	168.1913
11500.000000	87.622528	168.7701
11720.000000	87.592567	169.6340
11800.000000	87.629089	169.6235
12060.000000	87.787209	169.3929
12200.000000	87.945160	168.7506
12410.000000	88.291161	166.9516
12500.000000	88.463997	165.7207
12650.000000	88.830803	163.2273
12800.000000	89.231331	160.0827
13150.000000	90.348076	148.9478
13200.000000	90.502472	146.9093
13400.000000	91.208878	137.3737
13600.000000	91.849426	125.4974
13800.000000	92.318039	111.2088
14000.000000	92.465561	95.2308
14300.000000	92.018005	71.0934
14500.000000	91.458633	56.2164
14750.000000	90.699257	39.3393
15000.000000	90.104736	24.0499
15250.000000	89.864807	9.4794
15500.000000	90.057030	-6.1752
15750.000000	90.682617	-24.9937
16000.000000	91.505219	-49.7557
16250.000000	91.748184	-81.9481
16500.000000	90.689896	-116.9120
16750.000000	88.647430	-147.6520
17000.000000	86.535934	-174.0873
17250.000000	84.687996	160.6082
17500.000000	82.976067	132.8505
17750.000000	80.023491	101.5302
18000.000000	77.408531	88.3353
18250.000000	77.204094	65.0847
18500.000000	76.935402	33.2622
18750.000000	76.765411	-4.2332
19000.000000	75.949036	-48.9758
19250.000000	75.448166	-101.4207
19500.000000	74.637115	-163.9946
19750.000000	73.451447	120.9808
