* Measurement data measured by REW V5.20
* Source: USB-C to 3.5mm Headphone Jack Adapter, USB-C to 3.5mm Headphone Jack Adapter, 0, volume: 0.138
* Format: 256k Log Swept Sine, 1 sweep at -12.0 dBFS with no timing reference
* Dated: Sep 29, 2023 11:50:04 PM
* REW Settings:
*  C-weighting compensation: Off
*  Target level: 75.0 dB
* Note: ; 
* Measurement: (UD) L
* Smoothing: None
* Frequency Step: 1/48 octave
* Start Frequency: 20.300 Hz
*
* Freq(Hz)	SPL(dB)	Phase(degrees)
20.299999	102.645615	37.8892
20.600000	102.692024	37.1210
20.900000	102.724976	36.3806
21.200001	102.752243	35.6270
21.400000	102.769920	35.1221
21.799999	102.808327	34.1102
22.000000	102.829773	33.6045
22.400000	102.876152	32.6002
22.700001	102.912094	31.8659
23.000000	102.947792	31.1607
23.299999	102.982887	30.4914
23.600000	103.017441	29.8566
24.000000	103.062073	29.0439
24.299999	103.092651	28.4415
24.700001	103.125931	27.6322
25.000000	103.143745	27.0238
25.400000	103.159546	26.2260
25.799999	103.172958	25.4560
26.200001	103.192535	24.7026
26.500000	103.214020	24.1307
26.900000	103.249413	23.3415
27.200001	103.276688	22.7326
27.600000	103.306007	21.9332
28.000000	103.322105	21.2013
28.500000	103.325424	20.4430
29.000000	103.324066	19.8214
29.500000	103.331238	19.1892
30.000000	103.347641	18.3872
30.400000	103.361267	17.6016
30.700001	103.368744	16.9635
31.100000	103.374405	16.1158
31.500000	103.377495	15.3418
32.000000	103.382263	14.5235
32.500000	103.388351	13.8383
33.000000	103.390793	13.2085
33.500000	103.386955	12.5762
34.000000	103.380661	11.9093
34.500000	103.377228	11.1963
35.000000	103.377563	10.4566
35.500000	103.378937	9.7373
36.000000	103.379066	9.0781
36.500000	103.377167	8.4762
37.000000	103.371765	7.8949
37.500000	103.361298	7.3078
38.200001	103.341698	6.4849
38.700001	103.329948	5.9075
39.500000	103.316994	4.9825
40.000000	103.306488	4.3993
40.599998	103.287064	3.7139
41.200001	103.263168	3.0618
41.799999	103.240623	2.4438
42.500000	103.220459	1.7390
43.099998	103.204796	1.1166
43.700001	103.183189	0.4827
44.400002	103.150505	-0.2086
45.000000	103.125534	-0.7453
45.500000	103.108948	-1.1891
46.200001	103.082596	-1.8302
46.799999	103.052612	-2.3537
47.500000	103.021225	-2.9159
48.200001	102.999985	-3.5196
48.700001	102.982162	-3.9876
49.400002	102.946754	-4.5828
50.000000	102.917282	-4.9980
50.799999	102.887115	-5.5626
51.500000	102.853134	-6.1339
52.200001	102.810501	-6.6695
53.000000	102.771690	-7.2136
53.799999	102.738815	-7.7860
54.500000	102.703072	-8.2848
55.200001	102.665977	-8.7476
56.000000	102.627258	-9.2601
57.000000	102.579391	-9.8962
58.000000	102.521118	-10.5615
59.000000	102.451286	-11.1826
60.000000	102.399780	-11.7278
60.799999	102.369675	-12.1681
61.500000	102.340645	-12.5467
62.200001	102.305771	-12.9134
63.000000	102.260979	-13.3198
64.000000	102.207001	-13.8292
65.000000	102.153152	-14.3389
66.000000	102.100052	-14.7942
67.000000	102.048073	-15.2633
68.000000	101.991539	-15.7321
69.000000	101.939117	-16.1814
70.000000	101.887146	-16.6188
71.000000	101.831558	-17.0303
72.000000	101.772087	-17.4190
73.000000	101.717476	-17.7978
74.000000	101.664436	-18.1890
75.000000	101.608658	-18.5298
76.199997	101.550240	-18.9614
77.500000	101.479568	-19.4674
78.800003	101.419159	-19.8288
80.000000	101.352776	-20.2247
81.199997	101.286392	-20.5636
82.500000	101.221130	-20.9572
83.800003	101.150879	-21.2956
85.000000	101.088120	-21.6342
86.199997	101.031250	-21.9643
87.500000	100.968307	-22.2887
88.500000	100.921730	-22.5729
90.000000	100.848938	-22.8977
91.199997	100.785385	-23.1769
92.500000	100.713577	-23.4981
93.800003	100.648827	-23.7809
95.000000	100.588821	-23.9238
96.199997	100.535355	-24.1472
97.500000	100.472374	-24.4246
98.800003	100.414101	-24.6198
100.000000	100.345184	-24.7593
101.500000	100.312393	-24.8199
103.000000	100.246269	-25.2866
104.400002	100.170494	-25.5722
106.000000	100.102600	-25.8669
107.500000	100.076767	-25.9347
109.000000	99.983513	-26.0835
110.599998	99.933685	-26.5911
112.000000	99.856804	-26.5058
113.800003	99.782730	-27.0626
115.000000	99.762238	-26.9571
117.199997	99.635429	-27.3100
118.000000	99.681793	-27.8989
120.599998	99.721161	-25.4515
122.000000	99.339081	-27.9921
124.099998	99.373535	-28.1003
125.000000	99.313797	-27.8668
126.500000	99.259163	-28.3723
128.000000	99.227539	-28.3152
131.500000	99.081390	-28.5794
132.000000	99.059677	-28.6094
134.000000	98.981827	-28.7952
136.000000	98.904037	-28.8895
138.000000	98.832993	-28.9639
140.000000	98.755829	-29.0760
143.000000	98.652412	-29.1458
145.000000	98.587036	-29.1772
147.500000	98.509102	-29.2209
150.000000	98.443848	-29.3195
152.500000	98.372421	-29.4554
155.000000	98.286362	-29.5989
157.500000	98.200371	-29.6940
160.000000	98.116898	-29.7355
162.500000	98.031479	-29.7684
165.000000	97.953110	-29.7535
167.500000	97.875725	-29.7163
170.000000	97.792702	-29.6744
172.500000	97.721283	-29.6466
175.000000	97.654427	-29.5992
177.500000	97.578293	-29.4716
180.000000	97.513367	-29.3722
182.500000	97.443619	-29.2787
185.000000	97.375664	-29.1777
187.500000	97.307785	-28.9311
190.000000	97.245750	-28.7077
192.500000	97.191505	-28.3778
195.000000	97.153679	-27.9745
197.500000	97.137466	-27.5506
200.000000	97.156647	-27.1676
203.000000	97.209129	-26.9924
206.000000	97.258049	-27.1805
209.000000	97.277344	-27.6186
212.000000	97.255203	-28.0961
214.000000	97.224815	-28.4045
218.000000	97.143845	-28.8442
220.000000	97.100830	-29.0015
224.000000	97.006264	-29.2352
227.000000	96.937256	-29.3717
230.000000	96.871628	-29.4521
233.000000	96.807426	-29.4805
236.000000	96.742920	-29.5113
240.000000	96.660919	-29.5676
243.000000	96.600304	-29.5420
247.000000	96.526588	-29.5126
250.000000	96.474884	-29.4845
254.000000	96.404099	-29.4514
258.000000	96.336662	-29.4058
262.000000	96.270645	-29.3398
265.000000	96.221931	-29.3045
269.000000	96.160461	-29.2432
272.000000	96.114319	-29.1948
276.000000	96.055206	-29.1306
280.000000	95.996552	-29.0302
285.000000	95.925064	-28.9550
290.000000	95.857285	-28.8640
295.000000	95.788704	-28.7611
300.000000	95.715363	-28.7160
304.000000	95.671364	-28.5580
307.000000	95.636574	-28.4878
311.000000	95.584778	-28.3960
315.000000	95.537056	-28.3102
320.000000	95.477005	-28.1776
325.000000	95.414833	-28.0510
330.000000	95.358154	-27.9056
335.000000	95.299500	-27.7660
340.000000	95.241669	-27.5952
345.000000	95.187500	-27.4468
350.000000	95.132286	-27.2712
355.000000	95.074577	-27.0989
360.000000	95.016968	-26.8279
365.000000	94.967949	-26.6563
370.000000	94.916161	-26.4036
375.000000	94.865242	-26.1063
382.000000	94.809555	-25.5941
387.000000	94.784004	-25.1788
395.000000	94.788300	-24.5754
400.000000	94.803276	-24.3412
406.000000	94.835312	-24.2831
412.000000	94.847229	-24.3567
418.000000	94.826180	-24.4881
425.000000	94.790627	-24.6201
431.000000	94.749191	-24.6302
437.000000	94.703636	-24.6183
444.000000	94.657669	-24.5313
450.000000	94.612244	-24.4531
455.000000	94.579117	-24.3355
462.000000	94.533241	-24.1811
468.000000	94.497154	-24.0527
475.000000	94.454453	-23.8763
482.000000	94.420380	-23.6716
487.000000	94.396744	-23.5353
494.000000	94.359993	-23.3520
500.000000	94.332741	-23.1832
508.000000	94.299606	-22.9683
515.000000	94.269501	-22.7348
522.000000	94.242401	-22.5611
530.000000	94.216484	-22.3173
538.000000	94.188919	-22.0798
545.000000	94.168633	-21.8625
552.000000	94.149597	-21.6506
560.000000	94.128326	-21.4108
570.000000	94.099869	-21.0984
580.000000	94.082985	-20.7953
590.000000	94.063950	-20.4889
600.000000	94.031479	-20.1582
608.000000	94.038612	-19.9151
615.000000	94.031387	-19.6882
622.000000	94.021072	-19.4750
630.000000	94.017883	-19.2174
640.000000	94.011658	-18.8970
650.000000	94.013084	-18.6140
660.000000	94.005966	-18.2878
670.000000	94.016907	-17.9513
680.000000	94.021973	-17.6376
690.000000	94.031067	-17.3088
700.000000	94.042328	-16.9985
710.000000	94.056534	-16.6946
720.000000	94.069977	-16.4381
730.000000	94.093925	-16.0702
740.000000	94.115791	-15.7366
750.000000	94.145103	-15.4257
762.000000	94.174149	-15.0470
775.000000	94.215103	-14.6442
788.000000	94.259369	-14.2624
800.000000	94.309052	-13.9008
812.000000	94.361931	-13.5505
825.000000	94.421677	-13.1614
838.000000	94.487495	-12.8047
850.000000	94.554382	-12.4677
862.000000	94.623726	-12.1500
875.000000	94.702782	-11.8291
885.000000	94.768951	-11.6055
900.000000	94.875717	-11.2976
912.000000	94.962807	-11.0027
925.000000	95.066559	-10.7462
938.000000	95.164864	-10.5287
950.000000	95.269165	-10.3422
962.000000	95.375046	-10.1751
975.000000	95.493225	-10.0306
988.000000	95.615936	-9.9252
1000.000000	95.732239	-9.8545
1015.000000	95.882942	-9.8187
1030.000000	96.037247	-9.8361
1044.000000	96.183846	-9.8989
1060.000000	96.352692	-10.0336
1075.000000	96.514404	-10.2280
1090.000000	96.674911	-10.4679
1106.000000	96.847382	-10.7931
1120.000000	96.997894	-11.1347
1138.000000	97.189369	-11.6492
1150.000000	97.312393	-12.0285
1172.000000	97.540054	-12.8098
1180.000000	97.618805	-13.1151
1206.000000	97.872681	-14.2177
1220.000000	98.003304	-14.8650
1241.000000	98.191154	-15.8793
1250.000000	98.267113	-16.3495
1265.000000	98.389206	-17.1094
1280.000000	98.510292	-17.9159
1315.000000	98.762207	-19.8768
1320.000000	98.797745	-20.1705
1340.000000	98.926987	-21.3189
1360.000000	99.045273	-22.4918
1380.000000	99.152260	-23.6972
1400.000000	99.253349	-24.8661
1430.000000	99.386215	-26.6673
1450.000000	99.462654	-27.8360
1475.000000	99.546127	-29.3243
1500.000000	99.616081	-30.7849
1525.000000	99.674820	-32.2047
1550.000000	99.721413	-33.6104
1575.000000	99.753639	-34.9540
1600.000000	99.779007	-36.2638
1625.000000	99.791084	-37.5357
1650.000000	99.794548	-38.7425
1675.000000	99.788101	-39.9039
1700.000000	99.774117	-41.0064
1725.000000	99.752739	-42.0441
1750.000000	99.723747	-43.0206
1775.000000	99.690033	-43.9415
1800.000000	99.648727	-44.7742
1825.000000	99.605179	-45.5424
1850.000000	99.556717	-46.2474
1875.000000	99.504829	-46.8758
1900.000000	99.453873	-47.4402
1925.000000	99.398972	-47.9471
1950.000000	99.348015	-48.3883
1975.000000	99.292816	-48.7541
2000.000000	99.239227	-49.0789
2030.000000	99.176254	-49.3843
2060.000000	99.114670	-49.6029
2090.000000	99.056465	-49.7525
2120.000000	99.000977	-49.8265
2140.000000	98.967049	-49.8571
2180.000000	98.909615	-49.8109
2200.000000	98.881317	-49.7467
2240.000000	98.829842	-49.5755
2270.000000	98.797958	-49.3782
2300.000000	98.767540	-49.1321
2330.000000	98.743973	-48.8473
2360.000000	98.724243	-48.5093
2400.000000	98.711311	-48.0058
2430.000000	98.707130	-47.5903
2470.000000	98.713654	-47.0034
2500.000000	98.724449	-46.5289
2540.000000	98.750473	-45.8722
2580.000000	98.786377	-45.1526
2620.000000	98.835762	-44.4209
2650.000000	98.883583	-43.8828
2690.000000	98.960915	-43.1394
2720.000000	99.030434	-42.5933
2760.000000	99.132515	-41.9117
2800.000000	99.246925	-41.3443
2850.000000	99.402405	-40.7617
2900.000000	99.558090	-40.3251
2950.000000	99.711861	-40.0210
3000.000000	99.861046	-39.8340
3040.000000	99.974892	-39.7386
3070.000000	100.061127	-39.6879
3110.000000	100.175262	-39.7511
3150.000000	100.281494	-39.8859
3200.000000	100.404617	-40.2185
3250.000000	100.496307	-40.7115
3300.000000	100.549850	-41.3262
3350.000000	100.554146	-41.9348
3400.000000	100.515961	-42.4154
3450.000000	100.440842	-42.7111
3500.000000	100.344131	-42.7499
3550.000000	100.244423	-42.5301
3600.000000	100.150459	-42.0790
3650.000000	100.076538	-41.4754
3700.000000	100.010521	-40.8035
3750.000000	99.957596	-40.0399
3820.000000	99.908112	-38.8240
3870.000000	99.897095	-37.8793
3950.000000	99.921844	-36.4704
4000.000000	99.951477	-35.6569
4060.000000	100.006554	-34.7840
4120.000000	100.067528	-33.9776
4180.000000	100.140717	-33.2937
4250.000000	100.234787	-32.6637
4310.000000	100.319740	-32.2994
4370.000000	100.403824	-32.0953
4440.000000	100.489449	-32.0979
4500.000000	100.546219	-32.2624
4550.000000	100.580185	-32.4742
4620.000000	100.598724	-32.8954
4680.000000	100.591759	-33.3087
4750.000000	100.554039	-33.8309
4820.000000	100.494865	-34.3950
4870.000000	100.433975	-34.8253
4940.000000	100.323044	-35.4797
5000.000000	100.194740	-36.0501
5080.000000	99.965302	-36.7156
5150.000000	99.715668	-37.1303
5220.000000	99.423096	-37.2668
5300.000000	99.063583	-36.9102
5380.000000	98.704384	-36.0073
5450.000000	98.422699	-34.8121
5520.000000	98.197815	-33.2774
5600.000000	98.027779	-31.4129
5700.000000	97.985832	-29.6114
5800.000000	98.012650	-29.6426
5900.000000	97.724655	-31.3173
6000.000000	96.657555	-32.3940
6080.000000	96.116966	-27.6686
6150.000000	95.891113	-24.7539
6220.000000	95.677483	-22.0306
6300.000000	95.466064	-18.8577
6400.000000	95.263466	-14.7283
6500.000000	95.141830	-10.6182
6600.000000	95.084122	-6.4365
6700.000000	95.077713	-2.3057
6800.000000	95.151352	1.8163
6900.000000	95.282257	5.8176
7000.000000	95.490578	9.7119
7100.000000	95.786140	13.2506
7200.000000	96.134750	16.3228
7300.000000	96.533028	18.7676
7400.000000	96.959839	20.6457
7500.000000	97.395859	21.8370
7620.000000	97.906242	22.2930
7750.000000	98.395813	21.4609
7880.000000	98.721893	19.4138
8000.000000	98.839752	16.7386
8120.000000	98.725090	13.8848
8250.000000	98.402382	11.1980
8380.000000	97.880676	8.9483
8500.000000	97.248589	7.8173
8620.000000	96.563057	7.8689
8750.000000	95.838333	8.9135
8850.000000	95.305222	10.2314
9000.000000	94.563255	12.9228
9120.000000	94.038048	15.5432
9250.000000	93.540863	18.6927
9380.000000	93.111916	21.9468
9500.000000	92.801544	25.0864
9620.000000	92.548485	28.0387
9750.000000	92.297287	31.3506
9880.000000	92.098976	35.0442
10000.000000	92.075317	38.5085
10150.000000	92.158112	42.5719
10300.000000	92.381538	46.1983
10440.000000	92.760635	48.9654
10600.000000	93.295441	51.1337
10750.000000	93.957443	52.3479
10900.000000	94.739639	52.0095
11060.000000	95.685051	49.2605
11200.000000	96.325752	43.9397
11380.000000	96.627510	35.5076
11500.000000	96.475693	30.4269
11720.000000	96.036537	23.6427
11800.000000	95.876984	21.3595
12060.000000	95.098709	13.9705
12200.000000	94.488960	10.7936
12410.000000	93.475266	8.0205
12500.000000	93.050484	7.4459
12650.000000	92.408440	7.0255
12800.000000	91.849411	6.8946
13150.000000	90.730133	6.2809
13200.000000	90.576569	6.2013
13400.000000	89.989975	5.5679
13600.000000	89.432007	4.5893
13800.000000	88.938492	3.1228
14000.000000	88.468002	0.7299
14300.000000	87.806274	-4.3929
14500.000000	87.440948	-9.2386
14750.000000	86.999924	-17.5982
15000.000000	86.603897	-28.6586
15250.000000	85.980843	-41.6720
15500.000000	85.764870	-58.0257
15750.000000	85.398010	-74.9731
16000.000000	85.712700	-92.3250
16250.000000	86.484909	-117.7264
16500.000000	86.502541	-152.1082
16750.000000	84.879059	179.1795
17000.000000	83.401443	156.1074
17250.000000	82.142914	135.0634
17500.000000	81.016449	112.7363
17750.000000	79.743759	89.9825
18000.000000	78.287842	66.5004
18250.000000	76.438484	44.9599
18500.000000	75.647720	33.8887
18750.000000	79.247284	-2.1222
19000.000000	78.044807	-64.3035
19250.000000	75.143402	-117.2506
19500.000000	71.723785	-173.7841
19750.000000	67.865128	138.9521
