* Measurement data measured by REW V5.20
* Source: USB-C to 3.5mm Headphone Jack Adapter, USB-C to 3.5mm Headphone Jack Adapter, 0, volume: 0.138
* Format: 256k Log Swept Sine, 1 sweep at -12.0 dBFS with no timing reference
* Dated: Jun 16, 2023 7:12:44 AM
* REW Settings:
*  C-weighting compensation: Off
*  Target level: 75.0 dB
* Note: 
* Measurement: FW1.0.1.88 bal R
* Smoothing: None
* Frequency Step: 1/48 octave
* Start Frequency: 20.300 Hz
*
* Freq(Hz)	SPL(dB)	Phase(degrees)
20.299999	97.690346	-152.7472
20.600000	97.698906	-152.9930
20.900000	97.697540	-153.1069
21.200001	97.709229	-153.1208
21.400000	97.731918	-153.1059
21.799999	97.814331	-153.1359
22.000000	97.869217	-153.2208
22.400000	97.987556	-153.5476
22.700001	98.066391	-153.8850
23.000000	98.128662	-154.2296
23.299999	98.174683	-154.5223
23.600000	98.210556	-154.7358
24.000000	98.256714	-154.9255
24.299999	98.297035	-155.0564
24.700001	98.360016	-155.2994
25.000000	98.410492	-155.5557
25.400000	98.476089	-155.9731
25.799999	98.536133	-156.4090
26.200001	98.590958	-156.8015
26.500000	98.629677	-157.0549
26.900000	98.678246	-157.3554
27.200001	98.711586	-157.5735
27.600000	98.750473	-157.8842
28.000000	98.783028	-158.2338
28.500000	98.819397	-158.7224
29.000000	98.860199	-159.2452
29.500000	98.909943	-159.7853
30.000000	98.960190	-160.3229
30.400000	98.990555	-160.7147
30.700001	99.004517	-160.9543
31.100000	99.014427	-161.1685
31.500000	99.025696	-161.2653
32.000000	99.062050	-161.3263
32.500000	99.131203	-161.5003
33.000000	99.218178	-161.8963
33.500000	99.302704	-162.4555
34.000000	99.377243	-163.0444
34.500000	99.445503	-163.6002
35.000000	99.508919	-164.1441
35.500000	99.563385	-164.6913
36.000000	99.608627	-165.2080
36.500000	99.652039	-165.6681
37.000000	99.699142	-166.1075
37.500000	99.744415	-166.5857
38.200001	99.784645	-167.3306
38.700001	99.795891	-167.8689
39.500000	99.811287	-168.7281
40.000000	99.828995	-169.3004
40.599998	99.854965	-170.0000
41.200001	99.881142	-170.6425
41.799999	99.905113	-171.2086
42.500000	99.925308	-171.8350
43.099998	99.933212	-172.3902
43.700001	99.936668	-172.9723
44.400002	99.943245	-173.6769
45.000000	99.953308	-174.2821
45.500000	99.963669	-174.7746
46.200001	99.976349	-175.4473
46.799999	99.979614	-176.0061
47.500000	99.974945	-176.6111
48.200001	99.971817	-177.1942
48.700001	99.971115	-177.6514
49.400002	99.960426	-178.3442
50.000000	99.942245	-178.8894
50.799999	99.929291	-179.5123
51.500000	99.929337	179.8844
52.200001	99.912743	179.2125
53.000000	99.874374	178.5546
53.799999	99.849342	177.9818
54.500000	99.837524	177.4134
55.200001	99.822876	176.7974
56.000000	99.800797	176.0685
57.000000	99.753441	175.1707
58.000000	99.697792	174.5026
59.000000	99.662910	173.9147
60.000000	99.621201	173.2075
60.799999	99.579956	172.6443
61.500000	99.549759	172.1874
62.200001	99.524338	171.7389
63.000000	99.489395	171.2295
64.000000	99.434372	170.6202
65.000000	99.372993	169.9899
66.000000	99.304626	169.4075
67.000000	99.253403	168.8257
68.000000	99.201889	168.1099
69.000000	99.132652	167.5326
70.000000	99.066574	167.0483
71.000000	98.987953	166.4546
72.000000	98.916435	165.9590
73.000000	98.866745	165.4668
74.000000	98.783920	164.9560
75.000000	98.701523	164.5065
76.199997	98.622879	163.8940
77.500000	98.534363	163.3665
78.800003	98.403130	162.7274
80.000000	98.329361	162.2458
81.199997	98.251144	161.7309
82.500000	98.152573	161.3469
83.800003	98.036186	160.7722
85.000000	97.938019	160.3968
86.199997	97.835327	160.0831
87.500000	97.736389	159.6855
88.500000	97.646835	159.2711
90.000000	97.520142	158.8676
91.199997	97.422791	158.5786
92.500000	97.303413	158.2758
93.800003	97.193947	157.8933
95.000000	97.097954	157.6526
96.199997	96.988029	157.3841
97.500000	96.858414	157.1651
98.800003	96.745743	156.7946
100.000000	96.638229	156.6397
101.500000	96.497360	156.4841
103.000000	96.354454	156.1548
104.400002	96.222656	155.9731
106.000000	96.063278	155.8305
107.500000	95.911362	155.7070
109.000000	95.757561	155.5551
110.599998	95.593712	155.4329
112.000000	95.422623	155.4692
113.800003	95.202194	155.4735
115.000000	95.054321	155.5804
117.199997	94.756714	156.0916
118.000000	94.677277	156.4519
120.599998	94.347946	158.2225
122.000000	94.283096	159.0031
124.099998	94.245041	160.3702
125.000000	94.259651	160.9210
126.500000	94.295074	161.1538
128.000000	94.298447	161.2313
131.500000	94.186333	160.9140
132.000000	94.159027	160.9350
134.000000	94.057365	160.8109
136.000000	93.933907	160.9393
138.000000	93.784683	161.0756
140.000000	93.665550	161.1765
143.000000	93.434357	161.4371
145.000000	93.316231	161.8663
147.500000	93.168022	162.0928
150.000000	92.985268	162.9640
152.500000	92.806496	163.7361
155.000000	92.672150	163.9454
157.500000	92.526497	164.6314
160.000000	92.374893	165.6116
162.500000	92.222031	166.3777
165.000000	92.097519	167.1674
167.500000	91.974777	167.9740
170.000000	91.868118	168.8949
172.500000	91.738495	169.7690
175.000000	91.628860	170.5908
177.500000	91.536545	171.6337
180.000000	91.442101	172.3246
182.500000	91.358696	173.4672
185.000000	91.261482	174.4420
187.500000	91.179993	175.4406
190.000000	91.116730	176.3123
192.500000	91.040268	177.1957
195.000000	90.988190	178.1862
197.500000	90.929146	179.2228
200.000000	90.875702	-179.9031
203.000000	90.826248	-178.8045
206.000000	90.762375	-177.4262
209.000000	90.737823	-176.5164
212.000000	90.705505	-175.3309
214.000000	90.692863	-174.6119
218.000000	90.660477	-173.0626
220.000000	90.639465	-172.2852
224.000000	90.662018	-170.8532
227.000000	90.642838	-169.7144
230.000000	90.663300	-168.7946
233.000000	90.694870	-167.6201
236.000000	90.720551	-166.7974
240.000000	90.733902	-165.6677
243.000000	90.788704	-164.8800
247.000000	90.807739	-163.8372
250.000000	90.844734	-163.0549
254.000000	90.861816	-162.0819
258.000000	90.909805	-161.0704
262.000000	90.947121	-160.1473
265.000000	90.988937	-159.4093
269.000000	91.030289	-158.5809
272.000000	91.051361	-157.9943
276.000000	91.100449	-157.0428
280.000000	91.137108	-156.3065
285.000000	91.204903	-155.3494
290.000000	91.258530	-154.4382
295.000000	91.312546	-153.5934
300.000000	91.358780	-152.7814
304.000000	91.411926	-152.1067
307.000000	91.445312	-151.6290
311.000000	91.493637	-151.0240
315.000000	91.543488	-150.3541
320.000000	91.607933	-149.6744
325.000000	91.669708	-149.0549
330.000000	91.735497	-148.3905
335.000000	91.792679	-147.8514
340.000000	91.841278	-147.2804
345.000000	91.894135	-146.7399
350.000000	91.938377	-146.2154
355.000000	91.986557	-145.7426
360.000000	92.026817	-145.2677
365.000000	92.074356	-144.7792
370.000000	92.114326	-144.3058
375.000000	92.153694	-143.8057
382.000000	92.209038	-143.2400
387.000000	92.244301	-142.8120
395.000000	92.298538	-142.1373
400.000000	92.334587	-141.7741
406.000000	92.372147	-141.2697
412.000000	92.400864	-140.7571
418.000000	92.438362	-140.3500
425.000000	92.472450	-139.8668
431.000000	92.501221	-139.3715
437.000000	92.533310	-138.9703
444.000000	92.564560	-138.4739
450.000000	92.586884	-138.0641
455.000000	92.608521	-137.7088
462.000000	92.634972	-137.2335
468.000000	92.655090	-136.8447
475.000000	92.680206	-136.3586
482.000000	92.698227	-135.9084
487.000000	92.717712	-135.5736
494.000000	92.730934	-135.1201
500.000000	92.741898	-134.7427
508.000000	92.766663	-134.2384
515.000000	92.776688	-133.7950
522.000000	92.788025	-133.3585
530.000000	92.801628	-132.8152
538.000000	92.813904	-132.3244
545.000000	92.817314	-131.8729
552.000000	92.831696	-131.4459
560.000000	92.839096	-130.9413
570.000000	92.844139	-130.3131
580.000000	92.851700	-129.7105
590.000000	92.849808	-129.0640
600.000000	92.850800	-128.4611
608.000000	92.852798	-127.9489
615.000000	92.850929	-127.5068
622.000000	92.847824	-127.0687
630.000000	92.840141	-126.5419
640.000000	92.835678	-125.8690
650.000000	92.824654	-125.2217
660.000000	92.816559	-124.5466
670.000000	92.808395	-123.8687
680.000000	92.794563	-123.1903
690.000000	92.784081	-122.4551
700.000000	92.772034	-121.7434
710.000000	92.759666	-121.0598
720.000000	92.746010	-120.3082
730.000000	92.734169	-119.5464
740.000000	92.727676	-118.8256
750.000000	92.709656	-118.0753
762.000000	92.698936	-117.1369
775.000000	92.687531	-116.1340
788.000000	92.678062	-115.1232
800.000000	92.662949	-114.1372
812.000000	92.658844	-113.1977
825.000000	92.653030	-112.1317
838.000000	92.649994	-111.0955
850.000000	92.651749	-110.0986
862.000000	92.651398	-109.1186
875.000000	92.650284	-108.0325
885.000000	92.653786	-107.1959
900.000000	92.656548	-105.9706
912.000000	92.666443	-104.9727
925.000000	92.676704	-103.8620
938.000000	92.684784	-102.8082
950.000000	92.700699	-101.8144
962.000000	92.718620	-100.8141
975.000000	92.736885	-99.7156
988.000000	92.758118	-98.6553
1000.000000	92.784035	-97.7047
1015.000000	92.807053	-96.4700
1030.000000	92.840782	-95.2790
1044.000000	92.878891	-94.1608
1060.000000	92.911018	-92.9014
1075.000000	92.952034	-91.6956
1090.000000	92.988602	-90.5096
1106.000000	93.033676	-89.3049
1120.000000	93.070465	-88.2205
1138.000000	93.121849	-86.8003
1150.000000	93.153938	-85.9446
1172.000000	93.224266	-84.2367
1180.000000	93.245537	-83.6296
1206.000000	93.334839	-81.6607
1220.000000	93.379738	-80.6001
1241.000000	93.461609	-78.9681
1250.000000	93.499420	-78.3251
1265.000000	93.567764	-77.1513
1280.000000	93.635536	-76.0685
1315.000000	93.808235	-73.4810
1320.000000	93.834511	-73.1698
1340.000000	93.943069	-71.7385
1360.000000	94.060455	-70.3546
1380.000000	94.176758	-69.0643
1400.000000	94.301903	-67.7975
1430.000000	94.491165	-66.0342
1450.000000	94.619461	-64.9047
1475.000000	94.773613	-63.5604
1500.000000	94.932991	-62.3252
1525.000000	95.087608	-61.1241
1550.000000	95.235725	-60.0080
1575.000000	95.385002	-58.9254
1600.000000	95.524307	-57.8158
1625.000000	95.669373	-56.8641
1650.000000	95.809738	-55.8715
1675.000000	95.945892	-54.9413
1700.000000	96.074913	-54.0412
1725.000000	96.208649	-53.2107
1750.000000	96.330399	-52.3787
1775.000000	96.450714	-51.5655
1800.000000	96.568214	-50.7873
1825.000000	96.680992	-50.0196
1850.000000	96.792084	-49.2283
1875.000000	96.904457	-48.5023
1900.000000	97.010399	-47.7573
1925.000000	97.119453	-47.0149
1950.000000	97.225479	-46.3373
1975.000000	97.326393	-45.6659
2000.000000	97.432510	-44.9896
2030.000000	97.553360	-44.1936
2060.000000	97.676758	-43.4747
2090.000000	97.801605	-42.7394
2120.000000	97.916077	-42.0356
2140.000000	97.988861	-41.5736
2180.000000	98.149353	-40.7113
2200.000000	98.227089	-40.3149
2240.000000	98.374557	-39.5262
2270.000000	98.487534	-38.9591
2300.000000	98.599785	-38.4706
2330.000000	98.710091	-38.0036
2360.000000	98.807281	-37.5323
2400.000000	98.944206	-36.9880
2430.000000	99.041672	-36.7318
2470.000000	99.150696	-36.3351
2500.000000	99.205887	-36.0318
2540.000000	99.301888	-35.4557
2580.000000	99.411362	-34.9406
2620.000000	99.518600	-34.5054
2650.000000	99.591690	-34.2864
2690.000000	99.679100	-34.0277
2720.000000	99.739304	-33.8665
2760.000000	99.793091	-33.5531
2800.000000	99.872971	-33.2607
2850.000000	99.947472	-32.8916
2900.000000	100.036835	-32.4765
2950.000000	100.142563	-32.2448
3000.000000	100.219162	-32.3161
3040.000000	100.277023	-32.4557
3070.000000	100.300537	-32.6077
3110.000000	100.298843	-32.7925
3150.000000	100.293335	-33.0528
3200.000000	100.245468	-33.2254
3250.000000	100.177612	-33.2287
3300.000000	100.102058	-33.1718
3350.000000	100.021011	-32.9505
3400.000000	99.950607	-32.7129
3450.000000	99.870071	-32.4237
3500.000000	99.800049	-32.2342
3550.000000	99.706207	-32.0835
3600.000000	99.609116	-31.9322
3650.000000	99.482559	-31.6524
3700.000000	99.354027	-31.4074
3750.000000	99.210831	-31.0406
3820.000000	98.991562	-30.3433
3870.000000	98.825600	-29.7481
3950.000000	98.548119	-28.5855
4000.000000	98.383171	-27.7369
4060.000000	98.160446	-26.5878
4120.000000	97.950394	-25.2017
4180.000000	97.758743	-23.6210
4250.000000	97.552124	-21.6932
4310.000000	97.399498	-19.9415
4370.000000	97.255989	-18.1840
4440.000000	97.105988	-15.9659
4500.000000	96.997131	-14.0499
4550.000000	96.914894	-12.3704
4620.000000	96.839294	-9.9610
4680.000000	96.796524	-7.8996
4750.000000	96.785507	-5.5337
4820.000000	96.811852	-3.1392
4870.000000	96.854782	-1.5207
4940.000000	96.933426	0.6454
5000.000000	97.031303	2.3282
5080.000000	97.186790	4.3140
5150.000000	97.355553	5.8212
5220.000000	97.533920	7.0475
5300.000000	97.744019	8.0515
5380.000000	97.950241	8.5015
5450.000000	98.106430	8.6335
5520.000000	98.227615	8.3228
5600.000000	98.312729	7.7094
5700.000000	98.302429	6.7337
5800.000000	98.180824	5.7665
5900.000000	97.949600	5.0978
6000.000000	97.633537	4.8245
6080.000000	97.357147	5.1731
6150.000000	97.107559	5.7738
6220.000000	96.863678	6.6698
6300.000000	96.597260	8.0144
6400.000000	96.317696	10.0929
6500.000000	96.074043	12.4370
6600.000000	95.908134	15.1446
6700.000000	95.809532	17.9764
6800.000000	95.797096	20.8766
6900.000000	95.852409	23.7308
7000.000000	95.995842	26.4939
7100.000000	96.229340	29.0580
7200.000000	96.563339	31.3300
7300.000000	97.015465	33.0861
7400.000000	97.551910	34.2218
7500.000000	98.177818	34.4961
7620.000000	99.070351	33.1666
7750.000000	100.119171	28.8907
7880.000000	101.024811	20.4467
8000.000000	101.364151	9.2317
8120.000000	100.946678	-3.1045
8250.000000	99.738106	-14.1375
8380.000000	98.167290	-21.3844
8500.000000	96.669983	-25.1355
8620.000000	95.206886	-26.9792
8750.000000	93.721703	-27.3264
8850.000000	92.650360	-26.6622
9000.000000	91.169312	-24.6932
9120.000000	90.093719	-22.2339
9250.000000	89.015564	-19.2700
9380.000000	88.055679	-15.7778
9500.000000	87.246811	-12.4672
9620.000000	86.513733	-8.8528
9750.000000	85.793312	-4.9660
9880.000000	85.173759	-1.0311
10000.000000	84.640572	2.0224
10150.000000	84.089462	6.9390
10300.000000	83.568672	11.2502
10440.000000	83.117371	15.1703
10600.000000	82.681129	19.6745
10750.000000	82.290359	23.2705
10900.000000	81.961121	27.6010
11060.000000	81.668274	31.4721
11200.000000	81.386093	34.8868
11380.000000	81.169914	39.3835
11500.000000	81.004150	42.0733
11720.000000	80.858261	47.2755
11800.000000	80.812347	48.9809
12060.000000	80.772400	54.6412
12200.000000	80.829384	57.6086
12410.000000	80.956200	61.8172
12500.000000	81.084526	63.5280
12650.000000	81.293480	66.3847
12800.000000	81.546669	69.0717
13150.000000	82.565598	75.0799
13200.000000	82.768005	75.7778
13400.000000	83.685257	78.2445
13600.000000	84.988220	80.0258
13800.000000	86.613022	80.1984
14000.000000	88.714706	77.5954
14300.000000	93.125778	63.2564
14500.000000	96.218384	33.6464
14750.000000	94.655098	-15.8625
15000.000000	90.621674	-37.7171
15250.000000	87.605316	-46.5718
15500.000000	85.523605	-51.7988
15750.000000	84.076279	-56.0711
16000.000000	83.081711	-60.1431
16250.000000	82.523392	-65.2091
16500.000000	82.298363	-71.3003
16750.000000	82.512726	-79.5462
17000.000000	83.185593	-90.3750
17250.000000	35.696384	-163.4569
17500.000000	31.222923	-6.6873
17750.000000	20.051300	-155.1641
18000.000000	29.608459	-114.3896
18250.000000	35.188660	-118.1914
18500.000000	31.757118	51.0625
18750.000000	31.123325	144.4062
19000.000000	26.571045	-0.1953
19250.000000	27.978861	146.2305
19500.000000	34.879292	-24.4102
19750.000000	28.742624	-135.2305
