* Measurement data measured by REW V5.20
* Source: USB-C to 3.5mm Headphone Jack Adapter, USB-C to 3.5mm Headphone Jack Adapter, 0, volume: 0.138
* Format: 256k Log Swept Sine, 1 sweep at -12.0 dBFS with no timing reference
* Dated: Nov 13, 2023 5:38:39 PM
* REW Settings:
*  C-weighting compensation: Off
*  Target level: 75.0 dB
* Note: 
* Measurement: S2 R
* Smoothing: None
* Frequency Step: 1/48 octave
* Start Frequency: 20.300 Hz
*
* Freq(Hz)	SPL(dB)	Phase(degrees)
20.299999	85.281502	-95.4533
20.600000	85.414131	-96.1425
20.900000	85.533379	-96.7633
21.200001	85.631454	-97.3003
21.400000	85.684319	-97.5573
21.799999	85.778656	-97.7478
22.000000	85.832115	-97.6944
22.400000	85.973503	-97.4647
22.700001	86.114868	-97.4313
23.000000	86.271820	-97.6993
23.299999	86.421623	-98.3296
23.600000	86.543633	-99.2609
24.000000	86.649193	-100.6997
24.299999	86.696762	-101.7152
24.700001	86.751114	-102.8064
25.000000	86.805176	-103.4454
25.400000	86.900345	-104.1924
25.799999	86.997635	-104.9409
26.200001	87.067314	-105.6426
26.500000	87.098877	-106.0372
26.900000	87.138748	-106.3061
27.200001	87.190643	-106.3552
27.600000	87.310974	-106.4332
28.000000	87.479996	-106.7611
28.500000	87.701241	-107.6331
29.000000	87.869759	-108.6879
29.500000	87.978409	-109.4849
30.000000	88.068176	-109.8833
30.400000	88.150108	-110.0677
30.700001	88.219147	-110.2496
31.100000	88.313171	-110.6486
31.500000	88.397316	-111.2391
32.000000	88.479378	-112.1219
32.500000	88.543411	-112.9626
33.000000	88.610435	-113.6258
33.500000	88.693344	-114.1359
34.000000	88.783844	-114.5929
34.500000	88.864677	-115.0276
35.000000	88.933548	-115.3967
35.500000	89.006912	-115.7148
36.000000	89.095810	-116.1115
36.500000	89.187843	-116.6807
37.000000	89.264381	-117.3290
37.500000	89.329277	-117.8737
38.200001	89.442780	-118.4316
38.700001	89.541969	-118.8886
39.500000	89.662163	-119.8205
40.000000	89.703377	-120.3122
40.599998	89.754715	-120.7570
41.200001	89.820450	-121.2591
41.799999	89.878273	-121.8626
42.500000	89.936836	-122.4360
43.099998	90.012238	-122.8090
43.700001	90.102745	-123.2960
44.400002	90.175293	-123.9627
45.000000	90.217987	-124.3728
45.500000	90.273033	-124.6541
46.200001	90.376022	-125.2876
46.799999	90.436409	-126.0082
47.500000	90.467270	-126.5276
48.200001	90.531067	-126.6664
48.700001	90.601524	-126.8888
49.400002	90.667778	-127.5175
50.000000	90.686966	-128.0217
50.799999	90.742271	-128.4931
51.500000	90.822929	-129.0100
52.200001	90.883827	-129.4652
53.000000	90.961197	-129.7142
53.799999	91.054276	-130.1984
54.500000	91.092621	-130.8133
55.200001	91.112877	-131.2538
56.000000	91.165291	-131.7030
57.000000	91.223511	-132.4892
58.000000	91.263107	-133.1324
59.000000	91.332870	-133.4553
60.000000	91.430580	-133.7724
60.799999	91.465683	-134.2886
61.500000	91.462975	-134.7014
62.200001	91.483086	-135.0261
63.000000	91.537376	-135.4669
64.000000	91.594894	-135.9325
65.000000	91.652878	-136.3357
66.000000	91.695786	-136.8916
67.000000	91.741135	-137.3297
68.000000	91.788109	-137.7630
69.000000	91.818283	-138.1810
70.000000	91.862022	-138.5901
71.000000	91.910187	-139.0040
72.000000	91.946571	-139.3586
73.000000	91.982643	-139.7545
74.000000	92.014061	-140.2105
75.000000	92.045792	-140.5507
76.199997	92.087936	-140.9229
77.500000	92.127411	-141.3766
78.800003	92.155579	-141.8583
80.000000	92.218033	-142.3094
81.199997	92.252029	-142.8328
82.500000	92.277954	-143.0666
83.800003	92.305122	-143.4731
85.000000	92.351448	-143.8293
86.199997	92.378845	-144.2133
87.500000	92.405243	-144.5343
88.500000	92.427238	-144.8630
90.000000	92.461349	-145.2737
91.199997	92.483032	-145.5734
92.500000	92.515732	-145.9100
93.800003	92.535675	-146.2712
95.000000	92.566010	-146.5128
96.199997	92.589394	-146.8527
97.500000	92.604813	-147.1093
98.800003	92.640404	-147.4208
100.000000	92.656837	-147.7260
101.500000	92.686340	-148.0854
103.000000	92.709908	-148.3664
104.400002	92.732491	-148.6542
106.000000	92.754753	-148.9895
107.500000	92.774910	-149.2941
109.000000	92.793930	-149.5837
110.599998	92.819725	-149.8864
112.000000	92.836357	-150.1169
113.800003	92.862701	-150.4883
115.000000	92.870110	-150.6272
117.199997	92.897064	-151.0565
118.000000	92.923996	-151.1558
120.599998	92.911438	-151.3448
122.000000	92.953804	-151.9406
124.099998	92.977592	-152.1727
125.000000	92.978462	-152.3084
126.500000	93.003670	-152.5398
128.000000	93.012627	-152.7374
131.500000	93.042244	-153.1971
132.000000	93.046692	-153.2552
134.000000	93.062286	-153.5790
136.000000	93.080704	-153.8134
138.000000	93.087357	-154.0901
140.000000	93.105713	-154.2839
143.000000	93.112106	-154.6427
145.000000	93.131241	-154.9325
147.500000	93.143494	-155.1708
150.000000	93.147224	-155.4147
152.500000	93.152351	-155.7699
155.000000	93.157631	-156.0043
157.500000	93.156921	-156.2719
160.000000	93.142143	-156.4884
162.500000	93.118912	-156.6571
165.000000	93.092392	-156.6332
167.500000	93.083755	-156.3986
170.000000	93.114883	-156.1276
172.500000	93.170128	-155.9776
175.000000	93.238968	-156.0634
177.500000	93.294426	-156.3149
180.000000	93.335892	-156.5231
182.500000	93.356979	-156.8467
185.000000	93.380890	-157.1066
187.500000	93.397827	-157.3031
190.000000	93.414246	-157.5121
192.500000	93.423218	-157.7969
195.000000	93.436554	-157.9452
197.500000	93.442505	-158.0756
200.000000	93.457458	-158.2666
203.000000	93.469826	-158.4151
206.000000	93.478607	-158.6039
209.000000	93.491882	-158.7676
212.000000	93.498451	-158.9417
214.000000	93.507477	-159.0286
218.000000	93.516174	-159.2492
220.000000	93.527481	-159.3333
224.000000	93.529907	-159.5414
227.000000	93.545639	-159.6823
230.000000	93.552063	-159.7936
233.000000	93.557465	-159.9332
236.000000	93.564735	-160.0411
240.000000	93.566986	-159.9831
243.000000	93.585167	-160.3348
247.000000	93.587105	-160.4895
250.000000	93.591888	-160.5959
254.000000	93.594063	-160.7331
258.000000	93.600739	-160.8988
262.000000	93.607162	-160.9963
265.000000	93.609062	-161.1221
269.000000	93.609299	-161.2340
272.000000	93.618538	-161.3207
276.000000	93.621445	-161.4995
280.000000	93.624374	-161.5942
285.000000	93.622299	-161.7451
290.000000	93.630768	-161.8774
295.000000	93.627243	-162.0096
300.000000	93.624504	-162.1952
304.000000	93.620865	-162.2609
307.000000	93.614403	-162.3036
311.000000	93.611847	-162.3869
315.000000	93.611534	-162.4778
320.000000	93.605309	-162.5857
325.000000	93.597931	-162.6958
330.000000	93.583473	-162.7844
335.000000	93.575623	-162.8376
340.000000	93.566994	-162.8945
345.000000	93.562241	-162.9591
350.000000	93.560326	-163.0183
355.000000	93.551750	-163.0939
360.000000	93.539391	-163.2821
365.000000	93.536179	-163.2678
370.000000	93.528427	-163.3307
375.000000	93.522644	-163.4269
382.000000	93.500992	-163.5312
387.000000	93.485077	-163.5872
395.000000	93.455200	-163.6980
400.000000	93.436180	-163.7431
406.000000	93.413696	-163.7964
412.000000	93.391052	-163.8426
418.000000	93.363800	-163.9120
425.000000	93.336685	-163.9339
431.000000	93.305946	-163.9593
437.000000	93.276276	-163.9829
444.000000	93.241173	-163.9661
450.000000	93.206879	-163.9722
455.000000	93.181427	-163.9807
462.000000	93.140160	-163.9462
468.000000	93.102943	-163.9214
475.000000	93.064278	-163.8763
482.000000	93.025040	-163.7817
487.000000	92.989044	-163.7425
494.000000	92.945908	-163.6742
500.000000	92.906342	-163.6144
508.000000	92.853401	-163.4863
515.000000	92.806175	-163.3404
522.000000	92.753510	-163.2040
530.000000	92.697800	-163.0265
538.000000	92.640274	-162.7898
545.000000	92.589661	-162.6387
552.000000	92.542709	-162.4415
560.000000	92.485016	-162.1801
570.000000	92.409592	-161.8368
580.000000	92.342041	-161.4711
590.000000	92.263916	-161.1021
600.000000	92.208656	-160.7100
608.000000	92.137314	-160.3069
615.000000	92.086716	-159.9782
622.000000	92.038521	-159.6362
630.000000	91.982941	-159.2231
640.000000	91.913353	-158.6922
650.000000	91.847054	-158.1373
660.000000	91.789322	-157.5242
670.000000	91.720192	-156.9304
680.000000	91.657036	-156.2959
690.000000	91.595383	-155.6626
700.000000	91.541115	-154.9865
710.000000	91.487091	-154.2957
720.000000	91.426712	-153.5145
730.000000	91.386116	-152.8206
740.000000	91.343399	-152.0708
750.000000	91.296677	-151.3203
762.000000	91.248245	-150.3643
775.000000	91.204346	-149.2988
788.000000	91.162811	-148.2588
800.000000	91.128204	-147.2540
812.000000	91.103867	-146.2427
825.000000	91.084129	-145.1295
838.000000	91.065231	-144.0579
850.000000	91.057541	-142.9643
862.000000	91.050362	-141.9160
875.000000	91.046921	-140.7702
885.000000	91.056702	-139.9216
900.000000	91.076492	-138.6520
912.000000	91.087448	-137.5568
925.000000	91.119453	-136.4662
938.000000	91.147194	-135.3631
950.000000	91.183685	-134.3579
962.000000	91.223732	-133.3588
975.000000	91.273186	-132.2953
988.000000	91.334320	-131.2719
1000.000000	91.385422	-130.3445
1015.000000	91.463989	-129.2327
1030.000000	91.540497	-128.1605
1044.000000	91.622826	-127.2112
1060.000000	91.715210	-126.1581
1075.000000	91.808205	-125.2157
1090.000000	91.903244	-124.3274
1106.000000	92.007393	-123.4010
1120.000000	92.097275	-122.6607
1138.000000	92.222137	-121.7721
1150.000000	92.301720	-121.1789
1172.000000	92.455368	-120.1820
1180.000000	92.508339	-119.8463
1206.000000	92.707611	-118.8745
1220.000000	92.815132	-118.4314
1241.000000	92.963593	-117.9023
1250.000000	93.023529	-117.7616
1265.000000	93.121094	-117.5099
1280.000000	93.211136	-117.2978
1315.000000	93.384369	-116.9150
1320.000000	93.396408	-116.8953
1340.000000	93.493500	-116.7220
1360.000000	93.563950	-116.5787
1380.000000	93.631920	-116.5071
1400.000000	93.673103	-116.4286
1430.000000	93.727058	-116.3450
1450.000000	93.749054	-116.2830
1475.000000	93.751343	-116.1798
1500.000000	93.743149	-116.0244
1525.000000	93.705215	-115.7500
1550.000000	93.652336	-115.3115
1575.000000	93.622513	-114.5874
1600.000000	93.636703	-113.8213
1625.000000	93.679672	-113.3362
1650.000000	93.715073	-113.0448
1675.000000	93.726471	-112.9706
1700.000000	93.697510	-112.9098
1725.000000	93.642868	-112.8030
1750.000000	93.568321	-112.5684
1775.000000	93.488312	-112.2411
1800.000000	93.403366	-111.8428
1825.000000	93.314957	-111.3682
1850.000000	93.223282	-110.8522
1875.000000	93.129257	-110.2692
1900.000000	93.035622	-109.6488
1925.000000	92.932281	-109.0374
1950.000000	92.828339	-108.3616
1975.000000	92.717560	-107.6010
2000.000000	92.602737	-106.8355
2030.000000	92.459045	-105.7972
2060.000000	92.315872	-104.6782
2090.000000	92.169785	-103.4265
2120.000000	92.018227	-102.0343
2140.000000	91.929565	-101.0161
2180.000000	91.749268	-98.8168
2200.000000	91.681549	-97.5767
2240.000000	91.589951	-95.0262
2270.000000	91.568916	-93.2032
2300.000000	91.571968	-91.6523
2330.000000	91.569328	-90.2890
2360.000000	91.548645	-89.0352
2400.000000	91.494560	-87.4417
2430.000000	91.444946	-86.1501
2470.000000	91.368683	-84.3467
2500.000000	91.313187	-82.9061
2540.000000	91.250305	-81.0222
2580.000000	91.201614	-79.0018
2620.000000	91.169746	-77.0469
2650.000000	91.158897	-75.5556
2690.000000	91.167633	-73.6554
2720.000000	91.199829	-72.3820
2760.000000	91.255173	-71.0340
2800.000000	91.275063	-70.2337
2850.000000	91.195618	-69.7057
2900.000000	90.914871	-68.9044
2950.000000	90.538872	-66.8110
3000.000000	90.287018	-63.4173
3040.000000	90.223930	-60.7089
3070.000000	90.223511	-58.9699
3110.000000	90.247314	-57.0565
3150.000000	90.259254	-55.7553
3200.000000	90.194000	-54.6585
3250.000000	89.988480	-53.9370
3300.000000	89.605072	-52.8582
3350.000000	89.096222	-50.7613
3400.000000	88.567871	-47.0842
3450.000000	88.169098	-42.1926
3500.000000	87.977463	-36.7819
3550.000000	87.931190	-31.7271
3600.000000	87.992638	-27.1209
3650.000000	88.101814	-23.0423
3700.000000	88.222466	-19.4853
3750.000000	88.336655	-16.3362
3820.000000	88.481956	-12.2311
3870.000000	88.541306	-9.5000
3950.000000	88.640076	-5.3030
4000.000000	88.684113	-2.9143
4060.000000	88.689255	-0.0365
4120.000000	88.671959	2.8838
4180.000000	88.634384	6.1656
4250.000000	88.652000	10.1522
4310.000000	88.702698	13.4420
4370.000000	88.780251	16.2988
4440.000000	88.832687	19.2379
4500.000000	88.783554	21.3928
4550.000000	88.678207	23.3280
4620.000000	88.475983	26.6348
4680.000000	88.268250	30.0863
4750.000000	88.076225	34.8370
4820.000000	87.992950	40.0625
4870.000000	87.996857	43.7905
4940.000000	88.072746	48.6890
5000.000000	88.156418	52.6423
5080.000000	88.302338	57.6247
5150.000000	88.427200	61.8166
5220.000000	88.545021	65.8433
5300.000000	88.689316	70.4591
5380.000000	88.848763	74.9235
5450.000000	89.017632	78.8543
5520.000000	89.201874	82.5211
5600.000000	89.445824	86.3909
5700.000000	89.742416	90.6852
5800.000000	89.997772	94.1717
5900.000000	90.144440	97.0364
6000.000000	90.100220	99.4622
6080.000000	89.864838	101.8161
6150.000000	89.567375	104.7984
6220.000000	89.257095	108.8302
6300.000000	88.932983	114.4740
6400.000000	88.700150	123.2975
6500.000000	88.828865	133.1205
6600.000000	89.276611	142.2357
6700.000000	89.909760	150.1571
6800.000000	90.624947	156.9708
6900.000000	91.377182	163.0700
7000.000000	92.175102	168.5111
7100.000000	93.035995	173.3379
7200.000000	93.945999	177.4036
7300.000000	94.882240	-179.2949
7400.000000	95.885834	-176.7302
7500.000000	96.953033	-175.3069
7620.000000	98.247528	-175.8930
7750.000000	99.426765	-179.5775
7880.000000	100.127022	174.7608
8000.000000	100.286728	169.6057
8120.000000	100.110741	166.0485
8250.000000	99.800858	164.5399
8380.000000	99.643890	165.0446
8500.000000	99.811440	165.6791
8620.000000	100.225060	163.9335
8750.000000	100.327057	157.7749
8850.000000	99.799011	152.9214
9000.000000	98.522217	150.1582
9120.000000	97.586174	151.1396
9250.000000	96.777504	153.5199
9380.000000	96.118164	156.2684
9500.000000	95.573303	158.9177
9620.000000	95.050705	161.9286
9750.000000	94.557945	165.5794
9880.000000	94.175018	169.6324
10000.000000	93.930283	173.2992
10150.000000	93.727547	177.3777
10300.000000	93.579872	-179.3209
10440.000000	93.427765	-176.8503
10600.000000	93.197289	-174.2624
10750.000000	92.945839	-172.0578
10900.000000	92.660782	-169.7753
11060.000000	92.354202	-167.2597
11200.000000	92.094498	-165.0449
11380.000000	91.794113	-162.0944
11500.000000	91.617218	-160.3334
11720.000000	91.372902	-157.8422
11800.000000	91.291290	-157.3405
12060.000000	90.864296	-157.3976
12200.000000	90.437607	-158.3168
12410.000000	89.419731	-159.4520
12500.000000	88.855919	-159.5013
12650.000000	87.778358	-158.3481
12800.000000	86.646545	-155.0662
13150.000000	84.570023	-141.2128
13200.000000	84.329781	-138.7360
13400.000000	83.776733	-128.4025
13600.000000	83.741333	-117.8435
13800.000000	84.189880	-108.3432
14000.000000	85.061577	-100.6326
14300.000000	86.967857	-94.2388
14500.000000	88.607994	-93.9225
14750.000000	90.818748	-99.4043
15000.000000	92.928711	-112.1780
15250.000000	94.210091	-130.7969
15500.000000	94.633339	-151.4423
15750.000000	94.510574	-170.4849
16000.000000	94.459305	171.4265
16250.000000	94.629700	151.3133
16500.000000	94.830391	126.4661
16750.000000	94.375412	95.3264
17000.000000	92.611084	63.0727
17250.000000	90.096725	35.5045
17500.000000	87.610306	12.1949
17750.000000	85.430420	-9.8833
18000.000000	83.639641	-31.9624
18250.000000	82.115768	-56.8905
18500.000000	80.839264	-84.8067
18750.000000	79.834862	-117.5695
19000.000000	78.999321	-156.0125
19250.000000	78.209633	156.8433
19500.000000	77.343689	99.0413
19750.000000	75.952721	27.7582
