* Measurement data measured by REW V5.20
* Source: USB-C to 3.5mm Headphone Jack Adapter, USB-C to 3.5mm Headphone Jack Adapter, 0, volume: 0.138
* Format: 256k Log Swept Sine, 1 sweep at -12.0 dBFS with no timing reference
* Dated: Oct 2, 2023 7:08:42 PM
* REW Settings:
*  C-weighting compensation: Off
*  Target level: 75.0 dB
* Note: 
* Measurement: L1
* Smoothing: None
* Frequency Step: 1/48 octave
* Start Frequency: 20.300 Hz
*
* Freq(Hz)	SPL(dB)	Phase(degrees)
20.299999	84.717148	-98.9344
20.600000	84.848984	-99.0627
20.900000	84.986534	-99.3895
21.200001	85.112465	-99.9314
21.400000	85.184120	-100.3743
21.799999	85.300316	-101.2947
22.000000	85.350540	-101.7123
22.400000	85.452896	-102.4135
22.700001	85.544434	-102.8535
23.000000	85.649857	-103.2912
23.299999	85.761589	-103.7822
23.600000	85.868149	-104.3419
24.000000	85.987091	-105.1345
24.299999	86.058876	-105.6937
24.700001	86.144676	-106.3318
25.000000	86.213882	-106.7503
25.400000	86.321442	-107.3132
25.799999	86.440025	-107.9701
26.200001	86.553223	-108.7177
26.500000	86.627434	-109.2822
26.900000	86.713127	-109.9532
27.200001	86.772682	-110.3651
27.600000	86.854652	-110.8131
28.000000	86.943329	-111.2088
28.500000	87.059151	-111.7226
29.000000	87.172241	-112.2923
29.500000	87.280655	-112.9114
30.000000	87.384422	-113.5822
30.400000	87.461906	-114.1501
30.700001	87.515869	-114.5784
31.100000	87.583588	-115.1283
31.500000	87.650452	-115.6421
32.000000	87.736771	-116.2553
32.500000	87.822006	-116.8679
33.000000	87.897697	-117.4557
33.500000	87.965485	-117.9645
34.000000	88.037346	-118.4123
34.500000	88.118561	-118.9023
35.000000	88.198746	-119.5049
35.500000	88.266571	-120.1614
36.000000	88.327072	-120.7517
36.500000	88.395767	-121.2440
37.000000	88.476280	-121.7227
37.500000	88.552933	-122.2547
38.200001	88.628197	-122.9745
38.700001	88.673203	-123.3652
39.500000	88.786491	-123.9710
40.000000	88.876938	-124.5483
40.599998	88.963921	-125.4057
41.200001	89.009476	-126.1394
41.799999	89.038536	-126.5380
42.500000	89.099472	-126.7552
43.099998	89.175789	-127.0666
43.700001	89.243217	-127.5900
44.400002	89.291527	-128.2260
45.000000	89.326149	-128.6301
45.500000	89.364723	-128.9207
46.200001	89.430183	-129.4144
46.799999	89.486916	-129.9340
47.500000	89.556480	-130.5556
48.200001	89.627548	-131.1377
48.700001	89.666176	-131.4908
49.400002	89.697456	-131.8236
50.000000	89.722572	-132.0344
50.799999	89.774567	-132.5423
51.500000	89.819725	-133.2247
52.200001	89.860939	-133.7822
53.000000	89.931450	-134.1430
53.799999	90.002937	-134.5727
54.500000	90.031036	-135.0217
55.200001	90.058434	-135.3835
56.000000	90.119308	-135.8457
57.000000	90.164230	-136.4445
58.000000	90.210663	-136.7962
59.000000	90.279633	-137.6099
60.000000	90.301102	-138.1997
60.799999	90.355453	-138.2874
61.500000	90.413597	-138.5532
62.200001	90.441154	-138.9995
63.000000	90.454582	-139.4915
64.000000	90.490089	-139.9866
65.000000	90.537903	-140.3811
66.000000	90.577843	-140.7204
67.000000	90.619995	-141.1366
68.000000	90.647362	-141.6526
69.000000	90.685211	-141.9948
70.000000	90.742935	-142.4092
71.000000	90.768333	-142.7965
72.000000	90.793762	-143.1149
73.000000	90.819038	-143.5105
74.000000	90.845520	-143.8591
75.000000	90.867210	-144.2381
76.199997	90.891998	-144.7253
77.500000	90.944473	-145.1653
78.800003	90.991837	-145.3818
80.000000	91.010925	-145.7024
81.199997	91.020851	-146.2520
82.500000	91.073608	-146.6917
83.800003	91.112610	-147.0120
85.000000	91.125015	-147.3273
86.199997	91.152939	-147.7243
87.500000	91.206978	-148.1136
88.500000	91.211769	-148.2932
90.000000	91.239029	-148.5769
91.199997	91.268570	-148.8917
92.500000	91.304062	-149.1413
93.800003	91.307556	-149.5013
95.000000	91.324142	-149.7536
96.199997	91.361801	-150.0157
97.500000	91.369133	-150.3698
98.800003	91.391495	-150.6100
100.000000	91.401955	-150.9417
101.500000	91.453659	-151.0448
103.000000	91.459450	-151.5435
104.400002	91.477036	-151.5853
106.000000	91.499535	-151.9783
107.500000	91.521774	-152.2709
109.000000	91.544991	-152.5687
110.599998	91.565582	-152.8321
112.000000	91.590996	-153.0599
113.800003	91.604446	-153.3381
115.000000	91.618645	-153.5898
117.199997	91.647362	-153.8086
118.000000	91.642540	-153.9539
120.599998	91.673264	-154.5305
122.000000	91.729065	-154.5819
124.099998	91.734962	-154.7281
125.000000	91.742035	-154.8484
126.500000	91.768066	-155.0047
128.000000	91.772636	-155.2816
131.500000	91.799263	-155.6746
132.000000	91.804398	-155.7301
134.000000	91.830269	-156.0289
136.000000	91.840897	-156.2784
138.000000	91.870499	-156.5066
140.000000	91.880455	-156.7226
143.000000	91.907761	-157.0517
145.000000	91.927208	-157.2478
147.500000	91.934097	-157.5074
150.000000	91.959846	-157.7391
152.500000	91.970367	-157.9241
155.000000	91.988876	-158.1567
157.500000	92.011261	-158.3336
160.000000	92.017693	-158.4856
162.500000	92.036407	-158.6800
165.000000	92.061493	-158.8381
167.500000	92.076668	-158.9775
170.000000	92.097916	-159.1006
172.500000	92.113152	-159.2312
175.000000	92.137489	-159.3752
177.500000	92.156723	-159.5626
180.000000	92.175934	-159.6705
182.500000	92.203705	-159.8853
185.000000	92.222229	-159.9373
187.500000	92.237610	-160.1320
190.000000	92.263344	-160.2440
192.500000	92.284218	-160.3531
195.000000	92.306000	-160.4838
197.500000	92.320969	-160.6641
200.000000	92.343269	-160.8243
203.000000	92.370361	-160.9421
206.000000	92.386360	-161.1427
209.000000	92.403793	-161.2872
212.000000	92.436310	-161.4259
214.000000	92.447380	-161.5476
218.000000	92.467270	-161.7386
220.000000	92.483734	-161.8491
224.000000	92.515060	-162.1027
227.000000	92.530106	-162.2380
230.000000	92.555786	-162.3706
233.000000	92.577957	-162.5061
236.000000	92.590302	-162.7093
240.000000	92.610367	-162.8216
243.000000	92.636971	-163.0269
247.000000	92.658310	-163.2346
250.000000	92.669212	-163.3660
254.000000	92.689972	-163.5473
258.000000	92.719414	-163.7585
262.000000	92.738625	-163.9367
265.000000	92.755730	-164.0854
269.000000	92.775314	-164.2330
272.000000	92.783569	-164.4269
276.000000	92.806976	-164.5698
280.000000	92.821091	-164.7183
285.000000	92.838455	-164.9446
290.000000	92.862541	-165.1664
295.000000	92.885269	-165.3786
300.000000	92.904625	-165.6182
304.000000	92.916077	-165.7649
307.000000	92.928131	-165.8951
311.000000	92.945068	-166.0571
315.000000	92.959137	-166.2329
320.000000	92.973000	-166.4432
325.000000	92.987511	-166.6149
330.000000	93.000023	-166.8316
335.000000	93.007477	-167.0633
340.000000	93.021408	-167.2187
345.000000	93.036461	-167.4341
350.000000	93.052750	-167.6184
355.000000	93.058487	-167.7962
360.000000	93.064888	-168.0044
365.000000	93.075218	-168.1886
370.000000	93.083588	-168.3550
375.000000	93.092789	-168.5294
382.000000	93.101524	-168.7627
387.000000	93.106712	-168.9555
395.000000	93.112000	-169.2142
400.000000	93.111168	-169.3808
406.000000	93.112770	-169.5566
412.000000	93.116699	-169.7545
418.000000	93.116867	-169.9258
425.000000	93.116982	-170.1457
431.000000	93.114304	-170.2703
437.000000	93.109642	-170.4493
444.000000	93.107765	-170.6307
450.000000	93.100861	-170.7805
455.000000	93.101318	-170.9205
462.000000	93.093491	-171.0803
468.000000	93.093452	-171.2184
475.000000	93.088409	-171.3951
482.000000	93.072945	-171.5533
487.000000	93.066856	-171.6362
494.000000	93.060349	-171.7688
500.000000	93.047173	-171.8618
508.000000	93.037804	-172.0310
515.000000	93.019508	-172.1090
522.000000	93.010002	-172.2031
530.000000	92.995712	-172.3106
538.000000	92.979797	-172.4070
545.000000	92.960594	-172.4855
552.000000	92.945480	-172.5440
560.000000	92.927597	-172.6151
570.000000	92.911850	-172.6639
580.000000	92.888550	-172.6930
590.000000	92.862946	-172.7165
600.000000	92.840149	-172.7283
608.000000	92.822281	-172.7479
615.000000	92.806961	-172.7120
622.000000	92.791809	-172.6826
630.000000	92.775085	-172.6205
640.000000	92.751503	-172.5873
650.000000	92.732574	-172.5147
660.000000	92.714508	-172.4182
670.000000	92.696121	-172.3054
680.000000	92.675423	-172.1910
690.000000	92.660759	-172.0546
700.000000	92.646027	-171.9295
710.000000	92.627930	-171.7153
720.000000	92.614830	-171.5774
730.000000	92.609665	-171.4108
740.000000	92.600235	-171.2460
750.000000	92.589600	-171.0201
762.000000	92.584389	-170.7687
775.000000	92.579613	-170.4724
788.000000	92.577179	-170.1806
800.000000	92.580025	-169.8677
812.000000	92.589409	-169.5699
825.000000	92.595459	-169.2468
838.000000	92.611046	-168.8996
850.000000	92.627525	-168.5713
862.000000	92.647751	-168.2510
875.000000	92.670258	-167.9092
885.000000	92.691483	-167.6258
900.000000	92.733459	-167.2228
912.000000	92.768433	-166.8790
925.000000	92.810463	-166.5672
938.000000	92.858040	-166.2016
950.000000	92.909630	-165.9179
962.000000	92.960907	-165.6437
975.000000	93.018692	-165.3571
988.000000	93.083939	-165.0920
1000.000000	93.149124	-164.8831
1015.000000	93.228683	-164.6399
1030.000000	93.319504	-164.4513
1044.000000	93.400551	-164.3144
1060.000000	93.501144	-164.2145
1075.000000	93.591339	-164.1391
1090.000000	93.683540	-164.0907
1106.000000	93.780037	-164.1178
1120.000000	93.866997	-164.1416
1138.000000	93.977615	-164.2218
1150.000000	94.053070	-164.3126
1172.000000	94.186630	-164.5362
1180.000000	94.239090	-164.6468
1206.000000	94.390289	-165.0245
1220.000000	94.470604	-165.3063
1241.000000	94.586449	-165.7121
1250.000000	94.635124	-165.9288
1265.000000	94.711464	-166.2558
1280.000000	94.782722	-166.6072
1315.000000	94.966461	-167.4306
1320.000000	94.997208	-167.5635
1340.000000	95.117409	-168.2324
1360.000000	95.222931	-169.0572
1380.000000	95.306999	-169.9769
1400.000000	95.374977	-170.9089
1430.000000	95.450424	-172.3633
1450.000000	95.488441	-173.3381
1475.000000	95.520180	-174.5973
1500.000000	95.528931	-175.8518
1525.000000	95.520554	-177.0861
1550.000000	95.501595	-178.2755
1575.000000	95.467247	-179.5561
1600.000000	95.406662	179.1819
1625.000000	95.320847	177.9990
1650.000000	95.218307	176.9616
1675.000000	95.108261	176.0345
1700.000000	95.000305	175.1764
1725.000000	94.883652	174.3883
1750.000000	94.768875	173.5946
1775.000000	94.641541	172.7964
1800.000000	94.497772	172.0624
1825.000000	94.337952	171.3762
1850.000000	94.155762	170.7578
1875.000000	93.966034	170.3655
1900.000000	93.769485	170.1286
1925.000000	93.579819	170.1078
1950.000000	93.404198	170.2033
1975.000000	93.241623	170.3397
2000.000000	93.083199	170.4969
2030.000000	92.886932	170.8144
2060.000000	92.688148	171.2756
2090.000000	92.489174	172.0209
2120.000000	92.339737	173.2122
2140.000000	92.281662	174.1363
2180.000000	92.313881	175.7015
2200.000000	92.365402	176.0299
2240.000000	92.429695	175.9129
2270.000000	92.398560	175.6241
2300.000000	92.330551	175.4538
2330.000000	92.238297	175.4043
2360.000000	92.150932	175.4710
2400.000000	92.036163	175.6799
2430.000000	91.957413	175.8547
2470.000000	91.845245	176.1226
2500.000000	91.761551	176.3781
2540.000000	91.659210	176.8223
2580.000000	91.577721	177.2713
2620.000000	91.517654	177.7299
2650.000000	91.488892	177.9705
2690.000000	91.453171	178.1731
2720.000000	91.429565	178.0859
2760.000000	91.368011	177.9095
2800.000000	91.262444	177.5981
2850.000000	91.082985	177.2482
2900.000000	90.834877	177.1274
2950.000000	90.574402	177.5602
3000.000000	90.362030	178.2950
3040.000000	90.214180	178.7291
3070.000000	90.094284	178.9720
3110.000000	89.907410	179.1981
3150.000000	89.651070	179.5526
3200.000000	89.251091	-179.4024
3250.000000	88.859924	-177.1619
3300.000000	88.606911	-173.9700
3350.000000	88.528938	-170.6347
3400.000000	88.590439	-167.6893
3450.000000	88.735146	-165.4024
3500.000000	88.899292	-163.7264
3550.000000	89.043961	-162.6689
3600.000000	89.160385	-161.9614
3650.000000	89.217438	-161.4112
3700.000000	89.235519	-160.8190
3750.000000	89.226974	-160.0265
3820.000000	89.241531	-158.6577
3870.000000	89.292068	-157.6731
3950.000000	89.416550	-156.4989
4000.000000	89.476173	-155.9990
4060.000000	89.532272	-155.6451
4120.000000	89.559860	-155.3580
4180.000000	89.556519	-155.1251
4250.000000	89.499237	-154.8162
4310.000000	89.427376	-154.3377
4370.000000	89.343185	-153.6592
4440.000000	89.283798	-152.5986
4500.000000	89.242508	-151.5338
4550.000000	89.237030	-150.7224
4620.000000	89.255325	-149.5772
4680.000000	89.301170	-148.9238
4750.000000	89.350677	-148.4887
4820.000000	89.341370	-148.2934
4870.000000	89.283432	-148.2051
4940.000000	89.162323	-147.7857
5000.000000	89.053650	-147.0560
5080.000000	89.001755	-145.9109
5150.000000	88.971962	-145.2400
5220.000000	88.912888	-144.8471
5300.000000	88.768127	-144.6185
5380.000000	88.495300	-144.0745
5450.000000	88.194893	-142.8519
5520.000000	87.904205	-140.6921
5600.000000	87.694473	-137.5306
5700.000000	87.628403	-133.1964
5800.000000	87.725983	-129.3250
5900.000000	87.906708	-125.9907
6000.000000	88.129356	-123.0401
6080.000000	88.310669	-121.0701
6150.000000	88.481964	-119.3645
6220.000000	88.642174	-117.7553
6300.000000	88.843643	-115.9538
6400.000000	89.127724	-113.9179
6500.000000	89.424606	-112.0963
6600.000000	89.696281	-110.6445
6700.000000	89.912674	-109.0417
6800.000000	90.118782	-106.8125
6900.000000	90.398094	-103.8921
7000.000000	90.838989	-100.3699
7100.000000	91.493690	-96.9398
7200.000000	92.364899	-94.3603
7300.000000	93.389175	-92.8743
7400.000000	94.514236	-92.8839
7500.000000	95.685822	-94.4879
7620.000000	97.077263	-98.7458
7750.000000	98.403252	-106.2271
7880.000000	99.337662	-116.0443
8000.000000	99.754082	-125.7191
8120.000000	99.831253	-134.4918
8250.000000	99.771095	-142.4668
8380.000000	99.776215	-149.9422
8500.000000	99.784866	-158.0107
8620.000000	99.473778	-167.4906
8750.000000	98.600716	-176.7269
8850.000000	97.732841	178.3602
9000.000000	96.485649	174.2780
9120.000000	95.683968	172.6432
9250.000000	95.002861	171.4380
9380.000000	94.465256	170.2815
9500.000000	94.027115	169.0901
9620.000000	93.613129	167.9466
9750.000000	93.224197	166.9760
9880.000000	92.920502	165.9875
10000.000000	92.691803	164.7916
10150.000000	92.446564	163.0109
10300.000000	92.238029	160.7497
10440.000000	92.043137	158.2082
10600.000000	91.762909	154.8054
10750.000000	91.409073	151.4452
10900.000000	90.987785	148.1257
11060.000000	90.485039	144.8220
11200.000000	89.977402	142.2462
11380.000000	89.304085	139.5385
11500.000000	88.856567	138.1192
11720.000000	88.082748	136.6674
11800.000000	87.835022	136.3851
12060.000000	87.192268	135.7673
12200.000000	86.959068	135.3707
12410.000000	86.728798	134.9038
12500.000000	86.649208	134.8401
12650.000000	86.571800	134.0339
12800.000000	86.593155	133.4314
13150.000000	86.986404	130.7614
13200.000000	87.074951	130.2338
13400.000000	87.543938	127.4104
13600.000000	88.141685	123.4854
13800.000000	88.889648	118.2545
14000.000000	89.722885	111.7561
14300.000000	91.236511	98.9724
14500.000000	92.382957	87.6650
14750.000000	93.835075	69.7115
15000.000000	95.136154	47.3989
15250.000000	96.088135	21.3596
15500.000000	96.585510	-7.1918
15750.000000	96.744148	-37.0409
16000.000000	96.736580	-68.4688
16250.000000	96.484650	-103.0901
16500.000000	95.564102	-140.8975
16750.000000	93.783951	-178.4359
17000.000000	91.485802	147.2087
17250.000000	89.152115	115.7281
17500.000000	86.994583	85.7364
17750.000000	85.111427	55.7358
18000.000000	83.548645	24.3656
18250.000000	82.232407	-9.4149
18500.000000	81.201340	-47.2256
18750.000000	80.350693	-90.0587
19000.000000	79.767937	-140.1685
19250.000000	79.094749	160.2543
19500.000000	78.079781	87.9482
19750.000000	76.099060	1.1935
