* Measurement data measured by REW V5.20
* Source: USB-C to 3.5mm Headphone Jack Adapter, USB-C to 3.5mm Headphone Jack Adapter, 0, volume: 0.138
* Format: 256k Log Swept Sine, 1 sweep at -12.0 dBFS with no timing reference
* Dated: Sep 21, 2023 6:54:25 PM
* REW Settings:
*  C-weighting compensation: Off
*  Target level: 75.0 dB
* Note: ; 
* Measurement: (USB) R
* Smoothing: None
* Frequency Step: 1/48 octave
* Start Frequency: 20.300 Hz
*
* Freq(Hz)	SPL(dB)	Phase(degrees)
20.299999	95.211983	31.8352
20.600000	95.228363	31.1695
20.900000	95.251495	30.5875
21.200001	95.282516	29.9796
21.400000	95.305603	29.5438
21.799999	95.349319	28.6060
22.000000	95.366890	28.1191
22.400000	95.390823	27.1554
22.700001	95.400230	26.4798
23.000000	95.405823	25.8571
23.299999	95.410957	25.2798
23.600000	95.417709	24.7282
24.000000	95.429474	23.9952
24.299999	95.438805	23.4316
24.700001	95.449348	22.6594
25.000000	95.454765	22.0744
25.400000	95.458069	21.3028
25.799999	95.456429	20.5596
26.200001	95.449722	19.8654
26.500000	95.442291	19.3881
26.900000	95.432617	18.8129
27.200001	95.428398	18.4170
27.600000	95.429237	17.8986
28.000000	95.435349	17.3478
28.500000	95.439392	16.5884
29.000000	95.427582	15.8230
29.500000	95.402969	15.1615
30.000000	95.383011	14.6220
30.400000	95.378410	14.2067
30.700001	95.378532	13.8586
31.100000	95.378082	13.3248
31.500000	95.368927	12.7451
32.000000	95.345329	12.0599
32.500000	95.321716	11.4915
33.000000	95.311913	10.9936
33.500000	95.311508	10.4645
34.000000	95.305733	9.8718
34.500000	95.283554	9.2845
35.000000	95.252686	8.7918
35.500000	95.228989	8.4037
36.000000	95.220238	8.0373
36.500000	95.217957	7.6033
37.000000	95.205956	7.0979
37.500000	95.177910	6.6039
38.200001	95.137787	6.0637
38.700001	95.132240	5.7379
39.500000	95.153595	5.0981
40.000000	95.156525	4.6587
40.599998	95.137383	4.2337
41.200001	95.104988	3.9147
41.799999	95.064445	3.6015
42.500000	95.009956	3.2453
43.099998	94.977646	2.9874
43.700001	94.970085	2.6729
44.400002	94.966995	2.1448
45.000000	94.953728	1.6597
45.500000	94.941589	1.2878
46.200001	94.926781	0.7981
46.799999	94.908882	0.4461
47.500000	94.888611	0.1691
48.200001	94.875282	-0.1243
48.700001	94.857727	-0.4138
49.400002	94.818291	-0.8175
50.000000	94.792542	-1.1104
50.799999	94.782402	-1.5371
51.500000	94.776199	-1.9233
52.200001	94.762756	-2.2297
53.000000	94.731674	-2.5212
53.799999	94.687752	-2.8469
54.500000	94.657166	-3.2522
55.200001	94.641945	-3.6819
56.000000	94.645828	-3.9762
57.000000	94.618576	-4.0741
58.000000	94.584045	-4.2393
59.000000	94.624680	-6.1927
60.000000	94.467659	-7.9448
60.799999	94.410995	-6.7505
61.500000	94.530464	-5.7567
62.200001	94.565987	-6.0369
63.000000	94.449722	-6.6828
64.000000	94.403946	-7.2139
65.000000	94.405861	-7.7856
66.000000	94.368431	-7.8970
67.000000	94.330261	-8.3277
68.000000	94.296165	-8.7579
69.000000	94.281303	-9.0855
70.000000	94.241318	-9.3951
71.000000	94.212952	-9.8020
72.000000	94.184357	-10.1935
73.000000	94.160957	-10.4755
74.000000	94.127579	-10.8333
75.000000	94.093788	-11.1480
76.199997	94.058502	-11.5420
77.500000	94.014236	-11.9718
78.800003	93.977936	-12.4275
80.000000	93.932823	-12.8055
81.199997	93.887703	-13.1688
82.500000	93.835396	-13.5974
83.800003	93.799980	-13.9679
85.000000	93.754532	-14.3595
86.199997	93.706650	-14.6704
87.500000	93.653320	-15.0509
88.500000	93.620331	-15.3087
90.000000	93.555649	-15.7270
91.199997	93.517120	-16.0526
92.500000	93.457954	-16.4178
93.800003	93.400238	-16.7085
95.000000	93.350204	-17.0075
96.199997	93.305275	-17.3439
97.500000	93.245514	-17.6212
98.800003	93.192642	-17.9267
100.000000	93.138313	-18.2162
101.500000	93.062439	-18.5307
103.000000	93.000061	-18.8219
104.400002	92.944466	-19.1742
106.000000	92.855095	-19.3124
107.500000	92.782631	-19.7921
109.000000	92.699448	-19.9936
110.599998	92.638489	-20.2545
112.000000	92.561432	-20.4608
113.800003	92.477547	-20.7497
115.000000	92.418663	-20.9100
117.199997	92.316284	-21.2240
118.000000	92.280930	-21.2461
120.599998	92.127045	-21.5962
122.000000	92.075363	-21.8614
124.099998	91.964088	-21.8480
125.000000	91.918671	-22.0035
126.500000	91.836037	-22.0768
128.000000	91.767036	-22.1861
131.500000	91.578705	-22.3754
132.000000	91.552376	-22.4103
134.000000	91.443329	-22.4002
136.000000	91.352524	-22.4924
138.000000	91.255486	-22.5745
140.000000	91.152222	-22.5039
143.000000	90.994652	-22.4872
145.000000	90.904350	-22.3595
147.500000	90.786278	-22.2357
150.000000	90.660004	-22.0838
152.500000	90.538048	-21.9484
155.000000	90.422249	-21.7651
157.500000	90.315826	-21.4966
160.000000	90.203476	-21.2723
162.500000	90.107437	-20.9612
165.000000	89.996582	-20.6406
167.500000	89.903542	-20.2580
170.000000	89.798111	-19.9274
172.500000	89.710243	-19.6035
175.000000	89.627960	-19.1322
177.500000	89.533440	-18.8380
180.000000	89.494019	-18.5591
182.500000	89.371643	-17.8161
185.000000	89.309975	-17.4496
187.500000	89.236885	-16.9693
190.000000	89.177399	-16.5155
192.500000	89.118904	-16.0024
195.000000	89.060822	-15.5790
197.500000	89.018021	-15.0628
200.000000	88.957016	-14.6288
203.000000	88.907059	-13.9842
206.000000	88.869736	-13.4652
209.000000	88.829361	-12.9137
212.000000	88.786392	-12.4084
214.000000	88.747398	-11.9786
218.000000	88.707298	-11.2710
220.000000	88.706230	-11.0464
224.000000	88.651634	-10.3520
227.000000	88.621864	-9.7685
230.000000	88.605698	-9.1814
233.000000	88.581741	-8.7499
236.000000	88.556473	-8.2698
240.000000	88.550095	-7.5874
243.000000	88.510147	-7.1994
247.000000	88.498573	-6.5105
250.000000	88.483978	-6.0860
254.000000	88.454460	-5.3904
258.000000	88.451126	-4.6757
262.000000	88.441635	-4.0219
265.000000	88.453682	-3.4683
269.000000	88.460037	-2.6528
272.000000	88.479340	-2.1068
276.000000	88.527863	-1.3673
280.000000	88.604324	-0.7425
285.000000	88.684227	-0.1422
290.000000	88.792358	0.1746
295.000000	88.858002	0.2018
300.000000	88.921707	0.4383
304.000000	88.939850	0.3299
307.000000	88.954475	0.3745
311.000000	88.972054	0.4898
315.000000	88.981911	0.4593
320.000000	88.989998	0.6002
325.000000	88.990868	0.7236
330.000000	88.990196	0.8724
335.000000	88.991516	1.0237
340.000000	89.000046	1.2081
345.000000	89.002029	1.3486
350.000000	89.000336	1.5669
355.000000	88.995468	1.7548
360.000000	88.996704	1.8769
365.000000	88.999504	2.0173
370.000000	88.995705	2.2259
375.000000	88.991524	2.3956
382.000000	88.992882	2.6721
387.000000	88.987724	2.8195
395.000000	88.988358	3.1019
400.000000	88.987602	3.2555
406.000000	88.980019	3.4691
412.000000	88.977631	3.6674
418.000000	88.971863	3.8827
425.000000	88.964317	4.1185
431.000000	88.959671	4.3037
437.000000	88.949387	4.5343
444.000000	88.939148	4.7791
450.000000	88.933601	4.9866
455.000000	88.930618	5.1336
462.000000	88.926491	5.3825
468.000000	88.917671	5.5798
475.000000	88.902580	5.8170
482.000000	88.899826	6.0994
487.000000	88.888229	6.2776
494.000000	88.880081	6.4879
500.000000	88.875908	6.7230
508.000000	88.866913	6.9994
515.000000	88.859688	7.2297
522.000000	88.845436	7.5145
530.000000	88.834587	7.8119
538.000000	88.829659	8.0874
545.000000	88.817932	8.3432
552.000000	88.807999	8.6513
560.000000	88.793793	8.9290
570.000000	88.784851	9.3377
580.000000	88.776222	9.7017
590.000000	88.758896	10.1468
600.000000	88.749023	10.5433
608.000000	88.739021	10.8408
615.000000	88.730766	11.1321
622.000000	88.726936	11.4228
630.000000	88.720917	11.7597
640.000000	88.710045	12.1564
650.000000	88.705299	12.6295
660.000000	88.695755	13.0144
670.000000	88.689880	13.4693
680.000000	88.678993	13.9113
690.000000	88.679855	14.3666
700.000000	88.678101	14.7990
710.000000	88.674538	15.2947
720.000000	88.670326	15.7510
730.000000	88.668243	16.2488
740.000000	88.670059	16.6526
750.000000	88.670181	17.1424
762.000000	88.670120	17.7135
775.000000	88.680222	18.3425
788.000000	88.690048	18.9800
800.000000	88.698692	19.5215
812.000000	88.713570	20.1399
825.000000	88.728409	20.7830
838.000000	88.745064	21.4287
850.000000	88.765762	22.0635
862.000000	88.792946	22.6099
875.000000	88.823463	23.2923
885.000000	88.848419	23.7712
900.000000	88.887154	24.5289
912.000000	88.924057	25.1349
925.000000	88.960640	25.7483
938.000000	89.008858	26.3239
950.000000	89.049164	26.8825
962.000000	89.104614	27.4465
975.000000	89.150536	28.0170
988.000000	89.213089	28.5791
1000.000000	89.267258	29.0119
1015.000000	89.340080	29.6128
1030.000000	89.410446	30.2111
1044.000000	89.480202	30.7082
1060.000000	89.567314	31.2218
1075.000000	89.643303	31.6895
1090.000000	89.716545	32.0743
1106.000000	89.801346	32.4751
1120.000000	89.873154	32.7899
1138.000000	89.960640	33.1402
1150.000000	90.013962	33.3363
1172.000000	90.113945	33.7090
1180.000000	90.144638	33.7871
1206.000000	90.242981	34.0573
1220.000000	90.287674	34.1688
1241.000000	90.323166	34.3344
1250.000000	90.339897	34.4318
1265.000000	90.342445	34.6019
1280.000000	90.333900	34.8956
1315.000000	90.319260	36.0287
1320.000000	90.327454	36.2554
1340.000000	90.350525	37.1952
1360.000000	90.406235	38.1721
1380.000000	90.477554	39.1481
1400.000000	90.573677	40.0165
1430.000000	90.735703	41.2989
1450.000000	90.859299	42.0440
1475.000000	91.023979	42.8954
1500.000000	91.199936	43.6555
1525.000000	91.382019	44.2405
1550.000000	91.560234	44.7186
1575.000000	91.734283	45.1130
1600.000000	91.902306	45.4281
1625.000000	92.066177	45.6610
1650.000000	92.226471	45.9210
1675.000000	92.382881	46.0860
1700.000000	92.537720	46.2365
1725.000000	92.686729	46.3431
1750.000000	92.836487	46.3823
1775.000000	92.981598	46.4392
1800.000000	93.125504	46.4344
1825.000000	93.260551	46.4228
1850.000000	93.397385	46.3947
1875.000000	93.533836	46.3238
1900.000000	93.663864	46.2470
1925.000000	93.794815	46.1640
1950.000000	93.923325	46.0442
1975.000000	94.051064	45.8932
2000.000000	94.177139	45.7092
2030.000000	94.326286	45.4676
2060.000000	94.467026	45.1315
2090.000000	94.603012	44.7892
2120.000000	94.738434	44.4073
2140.000000	94.820168	44.1750
2180.000000	94.982727	43.6086
2200.000000	95.059402	43.3157
2240.000000	95.215515	42.6970
2270.000000	95.318817	42.2099
2300.000000	95.424133	41.7021
2330.000000	95.516472	41.1896
2360.000000	95.609703	40.6420
2400.000000	95.721855	39.9009
2430.000000	95.799957	39.3173
2470.000000	95.895836	38.5490
2500.000000	95.962601	37.9920
2540.000000	96.039551	37.2037
2580.000000	96.108940	36.4217
2620.000000	96.168640	35.6390
2650.000000	96.206665	35.0677
2690.000000	96.253410	34.3249
2720.000000	96.286293	33.7650
2760.000000	96.316902	33.0268
2800.000000	96.345428	32.3275
2850.000000	96.368996	31.4676
2900.000000	96.384819	30.6452
2950.000000	96.395218	29.8668
3000.000000	96.399071	29.1348
3040.000000	96.396988	28.5639
3070.000000	96.397736	28.1598
3110.000000	96.390755	27.6233
3150.000000	96.384583	27.1131
3200.000000	96.371597	26.5240
3250.000000	96.356003	25.9135
3300.000000	96.334213	25.3701
3350.000000	96.308662	24.8709
3400.000000	96.284111	24.4172
3450.000000	96.258957	24.0710
3500.000000	96.244225	23.7683
3550.000000	96.245392	23.4940
3600.000000	96.260941	23.2132
3650.000000	96.284607	22.8042
3700.000000	96.310570	22.2932
3750.000000	96.337067	21.7119
3820.000000	96.350609	20.8000
3870.000000	96.357224	20.1013
3950.000000	96.349228	18.9238
4000.000000	96.343353	18.1712
4060.000000	96.323563	17.1901
4120.000000	96.293823	16.1204
4180.000000	96.236320	14.9791
4250.000000	96.140053	13.7202
4310.000000	96.038483	12.7047
4370.000000	95.930038	11.7402
4440.000000	95.792068	10.6888
4500.000000	95.657349	9.8106
4550.000000	95.529106	9.0598
4620.000000	95.331444	8.2581
4680.000000	95.158035	7.6520
4750.000000	94.966270	7.1389
4820.000000	94.782341	6.7312
4870.000000	94.665283	6.3813
4940.000000	94.495987	5.8600
5000.000000	94.336548	5.3386
5080.000000	94.097122	4.5967
5150.000000	93.842255	4.0527
5220.000000	93.551956	3.7821
5300.000000	93.180283	4.0709
5380.000000	92.874634	5.3352
5450.000000	92.758118	6.7833
5520.000000	92.796410	7.5903
5600.000000	92.846527	7.0853
5700.000000	92.693039	5.4599
5800.000000	92.341301	4.1323
5900.000000	91.901482	3.6149
6000.000000	91.436546	3.8440
6080.000000	91.080322	4.4877
6150.000000	90.785515	5.2608
6220.000000	90.526001	6.2311
6300.000000	90.247032	7.5626
6400.000000	89.945229	9.2718
6500.000000	89.682693	11.0195
6600.000000	89.455170	12.8587
6700.000000	89.271721	14.6391
6800.000000	89.107834	16.4277
6900.000000	88.967735	18.2513
7000.000000	88.861755	19.9023
7100.000000	88.759789	21.5685
7200.000000	88.688850	23.1603
7300.000000	88.644127	24.5220
7400.000000	88.577019	25.7806
7500.000000	88.526299	26.8643
7620.000000	88.417480	28.0176
7750.000000	88.235939	29.1168
7880.000000	87.975418	30.2906
8000.000000	87.634262	32.2735
8120.000000	87.252998	35.5270
8250.000000	86.962677	40.8415
8380.000000	86.956703	47.4079
8500.000000	87.312721	53.7010
8620.000000	87.935616	59.0224
8750.000000	88.833740	63.2501
8850.000000	89.614227	65.4005
9000.000000	90.870834	66.8184
9120.000000	91.900269	66.3832
9250.000000	93.017868	64.0512
9380.000000	94.049271	60.0388
9500.000000	94.874611	54.6223
9620.000000	95.458054	47.7547
9750.000000	95.834106	39.6467
9880.000000	95.800140	31.3517
10000.000000	95.490631	24.5054
10150.000000	94.865791	17.6263
10300.000000	94.118195	12.7223
10440.000000	93.401474	9.4714
10600.000000	92.621613	7.3365
10750.000000	91.956184	6.3928
10900.000000	91.398941	6.1139
11060.000000	90.862358	6.4992
11200.000000	90.501228	7.1900
11380.000000	90.132729	8.4072
11500.000000	89.953316	9.5996
11720.000000	89.812492	11.8879
11800.000000	89.820404	12.8996
12060.000000	90.119995	15.8250
12200.000000	90.430511	17.1565
12410.000000	91.142159	18.5108
12500.000000	91.542450	18.8145
12650.000000	92.319817	18.7927
12800.000000	93.289658	17.8386
13150.000000	96.371193	9.0451
13200.000000	96.895340	6.5487
13400.000000	99.004128	-8.9826
13600.000000	100.152641	-34.4416
13800.000000	99.151222	-61.1178
14000.000000	96.989227	-78.7141
14300.000000	93.957886	-92.0685
14500.000000	92.402496	-96.8783
14750.000000	90.957832	-101.0477
15000.000000	89.982567	-104.4205
15250.000000	89.433617	-107.9090
15500.000000	89.307648	-112.1625
15750.000000	89.619148	-117.5326
16000.000000	90.453758	-125.1959
16250.000000	91.997925	-136.9882
16500.000000	94.327606	-158.4226
16750.000000	95.983612	158.9122
17000.000000	93.093307	110.8771
17250.000000	88.584404	83.1622
17500.000000	84.710274	65.3640
17750.000000	81.507774	50.4182
18000.000000	78.743134	36.2635
18250.000000	76.238449	21.0050
18500.000000	73.859367	3.2953
18750.000000	71.524857	-16.2794
19000.000000	69.302917	-39.1056
19250.000000	66.886665	-67.6830
19500.000000	64.198845	-99.0588
19750.000000	62.241768	-140.4473
