* Measurement data measured by REW V5.20
* Source: USB-C to 3.5mm Headphone Jack Adapter, USB-C to 3.5mm Headphone Jack Adapter, 0, volume: 0.138
* Format: 256k Log Swept Sine, 1 sweep at -12.0 dBFS with no timing reference
* Dated: Sep 27, 2023 5:03:31 PM
* REW Settings:
*  C-weighting compensation: Off
*  Target level: 75.0 dB
* Note: ; 
* Measurement: (DU) R
* Smoothing: None
* Frequency Step: 1/48 octave
* Start Frequency: 20.300 Hz
*
* Freq(Hz)	SPL(dB)	Phase(degrees)
20.299999	104.915443	32.9213
20.600000	104.945457	32.2491
20.900000	104.970078	31.6514
21.200001	104.994202	31.0614
21.400000	105.010696	30.6679
21.799999	105.044151	29.8793
22.000000	105.060547	29.4862
22.400000	105.091553	28.7109
22.700001	105.112579	28.1465
23.000000	105.131729	27.6002
23.299999	105.149345	27.0714
23.600000	105.165863	26.5573
24.000000	105.186798	25.8876
24.299999	105.201927	25.3934
24.700001	105.221436	24.7430
25.000000	105.235489	24.2624
25.400000	105.253281	23.6334
25.799999	105.269722	23.0205
26.200001	105.284782	22.4241
26.500000	105.295288	21.9858
26.900000	105.308502	21.4091
27.200001	105.317932	20.9791
27.600000	105.329926	20.4067
28.000000	105.341187	19.8366
28.500000	105.354324	19.1360
29.000000	105.366966	18.4597
29.500000	105.379349	17.8108
30.000000	105.390671	17.1845
30.400000	105.398170	16.6966
30.700001	105.402710	16.3378
31.100000	105.407578	15.8685
31.500000	105.411819	15.4078
32.000000	105.417053	14.8387
32.500000	105.422318	14.2727
33.000000	105.426910	13.7117
33.500000	105.430481	13.1615
34.000000	105.433258	12.6264
34.500000	105.435684	12.1058
35.000000	105.437828	11.5964
35.500000	105.439423	11.0957
36.000000	105.440079	10.6042
36.500000	105.439743	10.1245
37.000000	105.439018	9.6574
37.500000	105.438583	9.1974
38.200001	105.437248	8.5478
38.700001	105.433403	8.0812
39.500000	105.422173	7.3718
40.000000	105.416504	6.9625
40.599998	105.414536	6.4792
41.200001	105.414246	5.9789
41.799999	105.410263	5.4743
42.500000	105.401062	4.9189
43.099998	105.393555	4.4673
43.700001	105.386925	4.0096
44.400002	105.376602	3.4625
45.000000	105.365364	3.0067
45.500000	105.356514	2.6446
46.200001	105.346420	2.1502
46.799999	105.337608	1.7253
47.500000	105.324577	1.2374
48.200001	105.310989	0.7672
48.700001	105.302353	0.4330
49.400002	105.289810	-0.0409
50.000000	105.277191	-0.4370
50.799999	105.260620	-0.9388
51.500000	105.247139	-1.3812
52.200001	105.230675	-1.8334
53.000000	105.209167	-2.3249
53.799999	105.190804	-2.7914
54.500000	105.175461	-3.2012
55.200001	105.157997	-3.6024
56.000000	105.138062	-4.0464
57.000000	105.113510	-4.6112
58.000000	105.086342	-5.1515
59.000000	105.062408	-5.6595
60.000000	105.036652	-6.1887
60.799999	105.011902	-6.6051
61.500000	104.990990	-6.9580
62.200001	104.971191	-7.3117
63.000000	104.947960	-7.7088
64.000000	104.919350	-8.1811
65.000000	104.890305	-8.6517
66.000000	104.858101	-9.1093
67.000000	104.827934	-9.5556
68.000000	104.796738	-10.0180
69.000000	104.761993	-10.4576
70.000000	104.730667	-10.8846
71.000000	104.698891	-11.3254
72.000000	104.664963	-11.7386
73.000000	104.631149	-12.1407
74.000000	104.595421	-12.5434
75.000000	104.560623	-12.9421
76.199997	104.517578	-13.4071
77.500000	104.471352	-13.8792
78.800003	104.424789	-14.3713
80.000000	104.381538	-14.7982
81.199997	104.338417	-15.2150
82.500000	104.289223	-15.6634
83.800003	104.240562	-16.1102
85.000000	104.194679	-16.5086
86.199997	104.148048	-16.8809
87.500000	104.098923	-17.2993
88.500000	104.057709	-17.6118
90.000000	104.000473	-18.0460
91.199997	103.952759	-18.4015
92.500000	103.899033	-18.7745
93.800003	103.849274	-19.1389
95.000000	103.800880	-19.4808
96.199997	103.750015	-19.7757
97.500000	103.699554	-20.1172
98.800003	103.642487	-20.4726
100.000000	103.593872	-20.7533
101.500000	103.530502	-21.0992
103.000000	103.468590	-21.4530
104.400002	103.408089	-21.7815
106.000000	103.342453	-22.1103
107.500000	103.276848	-22.4527
109.000000	103.215393	-22.7608
110.599998	103.147873	-23.0870
112.000000	103.088188	-23.3641
113.800003	103.009476	-23.6846
115.000000	102.959030	-23.9119
117.199997	102.862793	-24.2919
118.000000	102.827187	-24.4349
120.599998	102.718292	-24.8243
122.000000	102.653587	-25.0589
124.099998	102.564018	-25.3524
125.000000	102.525459	-25.4837
126.500000	102.457863	-25.6922
128.000000	102.394760	-25.8742
131.500000	102.243279	-26.2753
132.000000	102.221313	-26.3365
134.000000	102.131714	-26.5629
136.000000	102.046753	-26.7560
138.000000	101.958603	-26.9398
140.000000	101.873680	-27.1158
143.000000	101.743835	-27.3505
145.000000	101.658203	-27.4914
147.500000	101.551727	-27.6388
150.000000	101.446335	-27.7737
152.500000	101.340004	-27.8929
155.000000	101.234154	-27.9896
157.500000	101.129295	-28.0635
160.000000	101.025879	-28.1395
162.500000	100.922966	-28.1697
165.000000	100.819740	-28.2003
167.500000	100.717720	-28.1761
170.000000	100.617149	-28.1723
172.500000	100.515656	-28.1220
175.000000	100.412521	-28.0696
177.500000	100.312286	-27.9994
180.000000	100.212921	-27.8926
182.500000	100.118401	-27.7413
185.000000	100.025665	-27.5443
187.500000	99.938629	-27.3317
190.000000	99.859924	-27.1048
192.500000	99.789055	-26.8799
195.000000	99.722008	-26.7073
197.500000	99.652420	-26.5541
200.000000	99.586594	-26.4254
203.000000	99.501701	-26.2456
206.000000	99.413307	-26.0595
209.000000	99.327675	-25.8517
212.000000	99.243774	-25.6299
214.000000	99.188774	-25.4739
218.000000	99.078438	-25.1376
220.000000	99.023651	-24.9751
224.000000	98.919800	-24.5885
227.000000	98.842133	-24.3014
230.000000	98.771622	-23.9791
233.000000	98.699783	-23.6493
236.000000	98.634033	-23.3017
240.000000	98.550262	-22.8520
243.000000	98.497284	-22.5125
247.000000	98.428268	-22.0695
250.000000	98.376900	-21.7560
254.000000	98.310188	-21.3551
258.000000	98.244499	-20.9481
262.000000	98.178780	-20.5481
265.000000	98.132484	-20.2231
269.000000	98.069046	-19.8219
272.000000	98.024185	-19.5130
276.000000	97.970650	-19.0758
280.000000	97.912262	-18.6459
285.000000	97.851128	-18.1127
290.000000	97.793968	-17.5639
295.000000	97.742432	-17.0403
300.000000	97.692368	-16.5207
304.000000	97.654068	-16.1216
307.000000	97.625305	-15.8132
311.000000	97.587662	-15.4295
315.000000	97.556625	-15.0240
320.000000	97.514450	-14.5435
325.000000	97.473785	-14.0596
330.000000	97.436554	-13.5813
335.000000	97.403137	-13.0839
340.000000	97.377327	-12.5923
345.000000	97.349121	-12.1087
350.000000	97.327759	-11.6494
355.000000	97.308891	-11.2318
360.000000	97.292664	-10.7975
365.000000	97.273003	-10.4281
370.000000	97.250351	-10.0579
375.000000	97.233597	-9.6964
382.000000	97.204826	-9.1760
387.000000	97.185173	-8.8290
395.000000	97.153610	-8.2665
400.000000	97.136337	-7.9253
406.000000	97.111847	-7.5008
412.000000	97.088554	-7.0839
418.000000	97.068626	-6.6722
425.000000	97.041252	-6.1924
431.000000	97.017464	-5.7871
437.000000	96.992882	-5.3700
444.000000	96.965363	-4.8507
450.000000	96.941788	-4.3627
455.000000	96.930649	-3.9627
462.000000	96.922638	-3.3497
468.000000	96.926903	-2.8555
475.000000	96.946686	-2.3450
482.000000	96.962845	-1.9603
487.000000	96.974358	-1.7681
494.000000	96.976898	-1.5112
500.000000	96.965584	-1.2784
508.000000	96.949883	-0.9417
515.000000	96.933014	-0.6360
522.000000	96.911728	-0.3219
530.000000	96.885086	0.1009
538.000000	96.858452	0.5298
545.000000	96.835976	0.9116
552.000000	96.813614	1.3542
560.000000	96.791687	1.8620
570.000000	96.773781	2.5143
580.000000	96.764793	3.1755
590.000000	96.759544	3.8182
600.000000	96.763954	4.4338
608.000000	96.767670	4.8974
615.000000	96.770821	5.2994
622.000000	96.773964	5.6796
630.000000	96.777634	6.0810
640.000000	96.780960	6.6066
650.000000	96.784637	7.0956
660.000000	96.782593	7.6027
670.000000	96.784576	8.1032
680.000000	96.780411	8.6039
690.000000	96.779404	9.1272
700.000000	96.777328	9.6405
710.000000	96.775223	10.1434
720.000000	96.778465	10.6767
730.000000	96.778946	11.2251
740.000000	96.780350	11.7583
750.000000	96.784706	12.2927
762.000000	96.789925	12.9600
775.000000	96.801163	13.6842
788.000000	96.810753	14.4142
800.000000	96.824326	15.1081
812.000000	96.838608	15.7813
825.000000	96.860985	16.5309
838.000000	96.881462	17.2976
850.000000	96.905800	17.9960
862.000000	96.934937	18.7179
875.000000	96.973396	19.4695
885.000000	97.003288	20.0576
900.000000	97.051590	20.9082
912.000000	97.099609	21.6108
925.000000	97.149902	22.3409
938.000000	97.206802	23.0651
950.000000	97.265549	23.7056
962.000000	97.327049	24.3478
975.000000	97.392014	25.0258
988.000000	97.467583	25.6706
1000.000000	97.537483	26.2500
1015.000000	97.631226	26.9403
1030.000000	97.727722	27.5958
1044.000000	97.822533	28.1706
1060.000000	97.929512	28.7889
1075.000000	98.037041	29.3140
1090.000000	98.142754	29.8040
1106.000000	98.259186	30.2786
1120.000000	98.360138	30.6460
1138.000000	98.490036	31.0754
1150.000000	98.575005	31.3332
1172.000000	98.728104	31.7124
1180.000000	98.783653	31.8341
1206.000000	98.956627	32.1886
1220.000000	99.046135	32.3279
1241.000000	99.175201	32.5065
1250.000000	99.230583	32.5758
1265.000000	99.316269	32.6736
1280.000000	99.400208	32.7482
1315.000000	99.581589	32.9104
1320.000000	99.606644	32.9105
1340.000000	99.702545	32.9960
1360.000000	99.793900	33.0392
1380.000000	99.878815	33.0944
1400.000000	99.963005	33.1603
1430.000000	100.083191	33.2422
1450.000000	100.161240	33.2993
1475.000000	100.253441	33.3645
1500.000000	100.346260	33.4442
1525.000000	100.434227	33.5439
1550.000000	100.523193	33.6209
1575.000000	100.613785	33.7084
1600.000000	100.705902	33.7868
1625.000000	100.795143	33.8588
1650.000000	100.888000	33.9172
1675.000000	100.979424	33.9659
1700.000000	101.072227	33.9977
1725.000000	101.165024	34.0091
1750.000000	101.261414	33.9892
1775.000000	101.354431	33.9836
1800.000000	101.448357	33.9169
1825.000000	101.541962	33.8280
1850.000000	101.638786	33.7178
1875.000000	101.730774	33.5709
1900.000000	101.823959	33.3956
1925.000000	101.914505	33.1905
1950.000000	102.002953	32.9437
1975.000000	102.089745	32.6546
2000.000000	102.171150	32.3423
2030.000000	102.266037	31.9227
2060.000000	102.354095	31.4546
2090.000000	102.434341	30.9445
2120.000000	102.507736	30.3866
2140.000000	102.551735	29.9975
2180.000000	102.625229	29.1892
2200.000000	102.656357	28.7659
2240.000000	102.702698	27.8972
2270.000000	102.725380	27.2273
2300.000000	102.736732	26.5727
2330.000000	102.735748	25.9135
2360.000000	102.725792	25.2792
2400.000000	102.694809	24.4613
2430.000000	102.658997	23.9019
2470.000000	102.599640	23.1982
2500.000000	102.545471	22.7338
2540.000000	102.462479	22.1859
2580.000000	102.368515	21.7448
2620.000000	102.269333	21.4141
2650.000000	102.190552	21.2310
2690.000000	102.083923	21.0832
2720.000000	102.002373	21.0351
2760.000000	101.894775	21.0796
2800.000000	101.790413	21.2028
2850.000000	101.663055	21.4819
2900.000000	101.546173	21.9013
2950.000000	101.438202	22.4292
3000.000000	101.343468	23.0466
3040.000000	101.276695	23.6164
3070.000000	101.232071	24.0795
3110.000000	101.182114	24.7220
3150.000000	101.139511	25.4117
3200.000000	101.103226	26.3164
3250.000000	101.081497	27.2697
3300.000000	101.078056	28.2575
3350.000000	101.096207	29.2701
3400.000000	101.138466	30.2558
3450.000000	101.199585	31.1912
3500.000000	101.274002	32.0639
3550.000000	101.362999	32.8483
3600.000000	101.461639	33.5833
3650.000000	101.571243	34.2618
3700.000000	101.692978	34.8812
3750.000000	101.824600	35.4043
3820.000000	102.025162	36.0306
3870.000000	102.183601	36.3720
3950.000000	102.458916	36.7077
4000.000000	102.642853	36.7472
4060.000000	102.875839	36.6064
4120.000000	103.119125	36.1935
4180.000000	103.362381	35.4795
4250.000000	103.633003	34.2174
4310.000000	103.840591	32.7974
4370.000000	104.015877	31.0366
4440.000000	104.152939	28.6448
4500.000000	104.210709	26.4026
4550.000000	104.206528	24.4308
4620.000000	104.115837	21.6423
4680.000000	103.961349	19.3819
4750.000000	103.694977	16.9855
4820.000000	103.354492	15.0396
4870.000000	103.074341	13.9616
4940.000000	102.653152	12.9735
5000.000000	102.276451	12.5569
5080.000000	101.776505	12.6992
5150.000000	101.355560	13.3981
5220.000000	100.961006	14.6340
5300.000000	100.568054	16.6509
5380.000000	100.260101	19.3279
5450.000000	100.092468	22.0723
5520.000000	100.040131	24.9737
5600.000000	100.134399	28.2664
5700.000000	100.476952	31.7213
5800.000000	101.016251	33.7699
5900.000000	101.654587	33.7489
6000.000000	102.213188	31.3802
6080.000000	102.467476	28.1130
6150.000000	102.480743	24.7950
6220.000000	102.305016	21.6906
6300.000000	101.926720	18.9637
6400.000000	101.322380	17.2192
6500.000000	100.713425	17.1062
6600.000000	100.169884	18.2995
6700.000000	99.730789	20.4073
6800.000000	99.422188	23.1574
6900.000000	99.250702	26.1732
7000.000000	99.203133	29.2974
7100.000000	99.278625	32.3601
7200.000000	99.476654	35.1684
7300.000000	99.780380	37.5890
7400.000000	100.192711	39.5352
7500.000000	100.715622	40.7837
7620.000000	101.451279	40.8391
7750.000000	102.282143	38.6493
7880.000000	102.948700	33.9998
8000.000000	103.247269	28.1649
8120.000000	103.142159	22.3200
8250.000000	102.695221	17.8606
8380.000000	102.213326	16.1979
8500.000000	102.021721	16.4989
8620.000000	102.217018	16.7430
8750.000000	102.762367	14.4558
8850.000000	103.136078	9.8738
9000.000000	103.054497	0.5147
9120.000000	102.451653	-5.7170
9250.000000	101.619614	-9.7619
9380.000000	100.852737	-11.6219
9500.000000	100.339775	-12.3036
9620.000000	99.974182	-12.6924
9750.000000	99.736656	-13.4598
9880.000000	99.606033	-15.0096
10000.000000	99.496521	-17.4768
10150.000000	99.218658	-21.6810
10300.000000	98.660355	-26.2918
10440.000000	97.893143	-29.5331
10600.000000	96.928528	-31.0508
10750.000000	96.141190	-30.5097
10900.000000	95.588013	-28.8578
11060.000000	95.296638	-27.0266
11200.000000	95.225250	-26.0616
11380.000000	95.294151	-26.0856
11500.000000	95.383545	-26.9295
11720.000000	95.531174	-30.2174
11800.000000	95.544525	-31.8278
12060.000000	95.436020	-37.6173
12200.000000	95.299271	-40.8289
12410.000000	95.057022	-45.2626
12500.000000	94.970505	-47.0498
12650.000000	94.850655	-49.8553
12800.000000	94.819794	-52.6745
13150.000000	95.137512	-60.0577
13200.000000	95.241035	-61.2719
13400.000000	95.811516	-67.3875
13600.000000	96.622589	-75.7964
13800.000000	97.607544	-87.7751
14000.000000	98.505997	-104.8363
14300.000000	98.534416	-138.3319
14500.000000	97.344017	-159.8563
14750.000000	95.282761	179.4921
15000.000000	93.370079	164.3380
15250.000000	91.931267	151.9163
15500.000000	91.003616	139.9516
15750.000000	90.488480	125.8314
16000.000000	89.937805	108.6555
16250.000000	88.996933	91.6287
16500.000000	88.165909	78.1597
16750.000000	88.322525	66.5661
17000.000000	89.936615	48.0730
17250.000000	91.412666	16.9006
17500.000000	92.041107	-19.4126
17750.000000	92.571510	-58.6113
18000.000000	92.931847	-105.3895
18250.000000	92.795799	-157.4373
18500.000000	92.421486	144.5632
18750.000000	91.474739	79.0234
19000.000000	90.035461	8.5628
19250.000000	88.114304	-67.6422
19500.000000	85.768341	-151.0171
19750.000000	82.802116	117.6661
