* Measurement data measured by REW V5.20
* Source: USB-C to 3.5mm Headphone Jack Adapter, USB-C to 3.5mm Headphone Jack Adapter, 0, volume: 0.138
* Format: 256k Log Swept Sine, 1 sweep at -12.0 dBFS with no timing reference
* Dated: Sep 27, 2023 5:06:10 PM
* REW Settings:
*  C-weighting compensation: Off
*  Target level: 75.0 dB
* Note: ; 
* Measurement: (DD) L
* Smoothing: None
* Frequency Step: 1/48 octave
* Start Frequency: 20.300 Hz
*
* Freq(Hz)	SPL(dB)	Phase(degrees)
20.299999	104.907684	31.0321
20.600000	104.929642	30.4010
20.900000	104.944763	29.8472
21.200001	104.959816	29.3033
21.400000	104.971260	28.9394
21.799999	104.998146	28.1978
22.000000	105.013123	27.8186
22.400000	105.043823	27.0486
22.700001	105.065170	26.4723
23.000000	105.083717	25.9095
23.299999	105.099251	25.3704
23.600000	105.112617	24.8601
24.000000	105.129662	24.2201
24.299999	105.143478	23.7565
24.700001	105.163605	23.1359
25.000000	105.178505	22.6585
25.400000	105.195312	22.0102
25.799999	105.206894	21.3743
26.200001	105.215096	20.7798
26.500000	105.221619	20.3661
26.900000	105.233551	19.8404
27.200001	105.245094	19.4477
27.600000	105.261238	18.9063
28.000000	105.274551	18.3447
28.500000	105.284386	17.6449
29.000000	105.289864	16.9815
29.500000	105.295380	16.3523
30.000000	105.300880	15.7390
30.400000	105.304039	15.2617
30.700001	105.306190	14.9166
31.100000	105.310829	14.4725
31.500000	105.319168	14.0305
32.000000	105.332504	13.4508
32.500000	105.341827	12.8430
33.000000	105.342850	12.2624
33.500000	105.340469	11.7543
34.000000	105.342491	11.2952
34.500000	105.348907	10.8216
35.000000	105.352112	10.3060
35.500000	105.347366	9.7805
36.000000	105.338676	9.2863
36.500000	105.333084	8.8230
37.000000	105.332451	8.3601
37.500000	105.333282	7.8827
38.200001	105.331306	7.2181
38.700001	105.328003	6.7653
39.500000	105.321609	6.0756
40.000000	105.316711	5.6616
40.599998	105.310600	5.1779
41.200001	105.304352	4.6938
41.799999	105.296387	4.2034
42.500000	105.284744	3.6401
43.099998	105.275505	3.1744
43.700001	105.267899	2.7168
44.400002	105.258385	2.1911
45.000000	105.248413	1.7551
45.500000	105.239349	1.4008
46.200001	105.226227	0.9074
46.799999	105.214775	0.4829
47.500000	105.201752	-0.0075
48.200001	105.189392	-0.4872
48.700001	105.180267	-0.8230
49.400002	105.165657	-1.2829
50.000000	105.151505	-1.6663
50.799999	105.132378	-2.1680
51.500000	105.116318	-2.6058
52.200001	105.100288	-3.0377
53.000000	105.082458	-3.5165
53.799999	105.064575	-3.9968
54.500000	105.045601	-4.4212
55.200001	105.024040	-4.8279
56.000000	105.001617	-5.2738
57.000000	104.974312	-5.8414
58.000000	104.943390	-6.3639
59.000000	104.919510	-6.8716
60.000000	104.891144	-7.4377
60.799999	104.863495	-7.8578
61.500000	104.842720	-8.2020
62.200001	104.822281	-8.5534
63.000000	104.795410	-8.9464
64.000000	104.763351	-9.4208
65.000000	104.732018	-9.9036
66.000000	104.700027	-10.3434
67.000000	104.670723	-10.7962
68.000000	104.634186	-11.2917
69.000000	104.597961	-11.7451
70.000000	104.568489	-12.1808
71.000000	104.532799	-12.5947
72.000000	104.494560	-12.9747
73.000000	104.457855	-13.3868
74.000000	104.419510	-13.8081
75.000000	104.382263	-14.2022
76.199997	104.338821	-14.6755
77.500000	104.289986	-15.1798
78.800003	104.243210	-15.6560
80.000000	104.197121	-16.0804
81.199997	104.150261	-16.4955
82.500000	104.098587	-16.9545
83.800003	104.041138	-17.3878
85.000000	103.997528	-17.7882
86.199997	103.951118	-18.2029
87.500000	103.899178	-18.5847
88.500000	103.855896	-18.8791
90.000000	103.795609	-19.3531
91.199997	103.743698	-19.7287
92.500000	103.688866	-20.0768
93.800003	103.630707	-20.4622
95.000000	103.580742	-20.7981
96.199997	103.530479	-21.1252
97.500000	103.472717	-21.4455
98.800003	103.418518	-21.7995
100.000000	103.366852	-22.0772
101.500000	103.299370	-22.4408
103.000000	103.233513	-22.8215
104.400002	103.170547	-23.1293
106.000000	103.094940	-23.4884
107.500000	103.036430	-23.8113
109.000000	102.965012	-24.1437
110.599998	102.894371	-24.4250
112.000000	102.831017	-24.7042
113.800003	102.748566	-25.0355
115.000000	102.691154	-25.3091
117.199997	102.595131	-25.6136
118.000000	102.554245	-25.7585
120.599998	102.434914	-26.1861
122.000000	102.374054	-26.3728
124.099998	102.275787	-26.7059
125.000000	102.234795	-26.8144
126.500000	102.167183	-27.0184
128.000000	102.098724	-27.2251
131.500000	101.938065	-27.6380
132.000000	101.915070	-27.6923
134.000000	101.827637	-27.9009
136.000000	101.734558	-28.0657
138.000000	101.643303	-28.2585
140.000000	101.550644	-28.4297
143.000000	101.418137	-28.6438
145.000000	101.327362	-28.8004
147.500000	101.215179	-28.9370
150.000000	101.106537	-29.0494
152.500000	100.989525	-29.1627
155.000000	100.883774	-29.2680
157.500000	100.770737	-29.3248
160.000000	100.665344	-29.3862
162.500000	100.561623	-29.3858
165.000000	100.450516	-29.4021
167.500000	100.340973	-29.4573
170.000000	100.242661	-29.3931
172.500000	100.137756	-29.3457
175.000000	100.037918	-29.2699
177.500000	99.935089	-29.1636
180.000000	99.831657	-29.1081
182.500000	99.740982	-28.9835
185.000000	99.640816	-28.8393
187.500000	99.542793	-28.7333
190.000000	99.452515	-28.5885
192.500000	99.358498	-28.3976
195.000000	99.268585	-28.2578
197.500000	99.179108	-28.0241
200.000000	99.093224	-27.8494
203.000000	98.989243	-27.5588
206.000000	98.888161	-27.3024
209.000000	98.790245	-26.9793
212.000000	98.693176	-26.6719
214.000000	98.632515	-26.4203
218.000000	98.507210	-25.9808
220.000000	98.458504	-25.7057
224.000000	98.345573	-25.2593
227.000000	98.268127	-24.8456
230.000000	98.196106	-24.5455
233.000000	98.109421	-24.1469
236.000000	98.041122	-23.7181
240.000000	97.938438	-23.2294
243.000000	97.856445	-22.7457
247.000000	97.782333	-22.0855
250.000000	97.721283	-21.6293
254.000000	97.641525	-20.8233
258.000000	97.604500	-20.0331
262.000000	97.588280	-19.4772
265.000000	97.568977	-19.1472
269.000000	97.534576	-18.7180
272.000000	97.506714	-18.4225
276.000000	97.463776	-18.0304
280.000000	97.420677	-17.6263
285.000000	97.364296	-17.1329
290.000000	97.312790	-16.6088
295.000000	97.261475	-16.0723
300.000000	97.213783	-15.5425
304.000000	97.181366	-15.1042
307.000000	97.155899	-14.7744
311.000000	97.124779	-14.3442
315.000000	97.090698	-13.9096
320.000000	97.056381	-13.3885
325.000000	97.028381	-12.8744
330.000000	96.996315	-12.3575
335.000000	96.973976	-11.8845
340.000000	96.945435	-11.3809
345.000000	96.923599	-10.9207
350.000000	96.898994	-10.4334
355.000000	96.883575	-9.9630
360.000000	96.864273	-9.5274
365.000000	96.846817	-9.1070
370.000000	96.831284	-8.6494
375.000000	96.817978	-8.2301
382.000000	96.797455	-7.6610
387.000000	96.787598	-7.2413
395.000000	96.770760	-6.6499
400.000000	96.760788	-6.2529
406.000000	96.750671	-5.8042
412.000000	96.738243	-5.3719
418.000000	96.732140	-4.9758
425.000000	96.715416	-4.5069
431.000000	96.707619	-4.0687
437.000000	96.693970	-3.7004
444.000000	96.680496	-3.2644
450.000000	96.669632	-2.8746
455.000000	96.658737	-2.5549
462.000000	96.642319	-2.0954
468.000000	96.623238	-1.6946
475.000000	96.600677	-1.2121
482.000000	96.583771	-0.6742
487.000000	96.567139	-0.2605
494.000000	96.555939	0.4074
500.000000	96.560188	1.0197
508.000000	96.597679	1.7859
515.000000	96.654663	2.2940
522.000000	96.701523	2.5657
530.000000	96.734039	2.7996
538.000000	96.745872	3.0030
545.000000	96.745995	3.2536
552.000000	96.744942	3.5011
560.000000	96.742081	3.8585
570.000000	96.735275	4.2811
580.000000	96.733284	4.7256
590.000000	96.732399	5.1995
600.000000	96.730392	5.6513
608.000000	96.734116	6.0019
615.000000	96.737556	6.3310
622.000000	96.737854	6.6183
630.000000	96.739746	6.9661
640.000000	96.740150	7.3980
650.000000	96.741074	7.8162
660.000000	96.740555	8.2389
670.000000	96.738106	8.6624
680.000000	96.731773	9.0977
690.000000	96.726166	9.5170
700.000000	96.723267	9.9709
710.000000	96.715652	10.4484
720.000000	96.712906	10.9234
730.000000	96.709579	11.4201
740.000000	96.707558	11.9237
750.000000	96.704773	12.4465
762.000000	96.706062	13.0764
775.000000	96.709763	13.7633
788.000000	96.717278	14.4779
800.000000	96.727791	15.1387
812.000000	96.742241	15.8089
825.000000	96.757957	16.5326
838.000000	96.779427	17.2905
850.000000	96.802032	17.9512
862.000000	96.829941	18.6377
875.000000	96.863388	19.4012
885.000000	96.895393	19.9658
900.000000	96.947380	20.8129
912.000000	96.992096	21.4658
925.000000	97.043861	22.1503
938.000000	97.099007	22.8306
950.000000	97.152084	23.4610
962.000000	97.209885	24.0685
975.000000	97.274117	24.7250
988.000000	97.345627	25.3517
1000.000000	97.412102	25.9176
1015.000000	97.499405	26.5820
1030.000000	97.590248	27.2367
1044.000000	97.680283	27.7931
1060.000000	97.785126	28.4024
1075.000000	97.885986	28.9527
1090.000000	97.990005	29.4332
1106.000000	98.100410	29.9064
1120.000000	98.198174	30.2764
1138.000000	98.325211	30.7271
1150.000000	98.408562	30.9740
1172.000000	98.559769	31.3921
1180.000000	98.614235	31.5406
1206.000000	98.786079	31.9111
1220.000000	98.876610	32.0713
1241.000000	99.009201	32.2696
1250.000000	99.061295	32.3418
1265.000000	99.148911	32.4592
1280.000000	99.233032	32.5487
1315.000000	99.418671	32.6958
1320.000000	99.442345	32.7318
1340.000000	99.538940	32.8046
1360.000000	99.631042	32.8677
1380.000000	99.718414	32.9187
1400.000000	99.803856	32.9780
1430.000000	99.923347	33.0735
1450.000000	100.001953	33.1287
1475.000000	100.095818	33.2099
1500.000000	100.189102	33.3018
1525.000000	100.280853	33.3890
1550.000000	100.373070	33.4911
1575.000000	100.464226	33.5947
1600.000000	100.555672	33.6739
1625.000000	100.649277	33.7567
1650.000000	100.741928	33.8261
1675.000000	100.835785	33.8942
1700.000000	100.930107	33.9428
1725.000000	101.026039	33.9649
1750.000000	101.121925	33.9922
1775.000000	101.220695	33.9877
1800.000000	101.317406	33.9531
1825.000000	101.415619	33.8937
1850.000000	101.514595	33.8021
1875.000000	101.610474	33.6803
1900.000000	101.708855	33.5318
1925.000000	101.802719	33.3408
1950.000000	101.897705	33.1274
1975.000000	101.989243	32.8810
2000.000000	102.077934	32.5938
2030.000000	102.179222	32.1981
2060.000000	102.276009	31.7539
2090.000000	102.365143	31.2705
2120.000000	102.447105	30.7350
2140.000000	102.495880	30.3695
2180.000000	102.583687	29.5844
2200.000000	102.622932	29.1656
2240.000000	102.682785	28.3225
2270.000000	102.715324	27.6635
2300.000000	102.737221	27.0128
2330.000000	102.748169	26.3768
2360.000000	102.747482	25.7460
2400.000000	102.731010	24.9484
2430.000000	102.707420	24.3892
2470.000000	102.663971	23.7124
2500.000000	102.623611	23.2513
2540.000000	102.559921	22.7194
2580.000000	102.489822	22.2622
2620.000000	102.411865	21.8953
2650.000000	102.349625	21.6701
2690.000000	102.262703	21.4453
2720.000000	102.195145	21.3398
2760.000000	102.101379	21.2933
2800.000000	102.010452	21.3207
2850.000000	101.896454	21.4966
2900.000000	101.792480	21.8019
2950.000000	101.693779	22.2370
3000.000000	101.607269	22.7676
3040.000000	101.549568	23.2524
3070.000000	101.510727	23.6619
3110.000000	101.467896	24.2349
3150.000000	101.434311	24.8376
3200.000000	101.405632	25.6429
3250.000000	101.394775	26.4705
3300.000000	101.396553	27.3069
3350.000000	101.414452	28.1483
3400.000000	101.444969	28.9938
3450.000000	101.489494	29.7957
3500.000000	101.547272	30.6033
3550.000000	101.618103	31.4029
3600.000000	101.703766	32.1497
3650.000000	101.804497	32.8931
3700.000000	101.923317	33.5727
3750.000000	102.057793	34.1648
3820.000000	102.270065	34.8177
3870.000000	102.433372	35.1433
3950.000000	102.709160	35.4526
4000.000000	102.893448	35.4836
4060.000000	103.121689	35.3239
4120.000000	103.358887	34.9208
4180.000000	103.598206	34.2518
4250.000000	103.865929	33.0727
4310.000000	104.077454	31.7124
4370.000000	104.254196	30.0409
4440.000000	104.406372	27.7256
4500.000000	104.474808	25.4963
4550.000000	104.478088	23.5188
4620.000000	104.394524	20.7160
4680.000000	104.238403	18.3969
4750.000000	103.962914	16.0253
4820.000000	103.608963	14.1615
4870.000000	103.324371	13.1999
4940.000000	102.908379	12.4057
5000.000000	102.546318	12.2028
5080.000000	102.073761	12.5677
5150.000000	101.683403	13.4507
5220.000000	101.337120	14.8615
5300.000000	101.012726	17.0105
5380.000000	100.791023	19.6559
5450.000000	100.708130	22.2524
5520.000000	100.742447	24.8356
5600.000000	100.926598	27.4899
5700.000000	101.342232	29.7719
5800.000000	101.880890	30.2795
5900.000000	102.390297	28.6562
6000.000000	102.687889	25.1520
6080.000000	102.671936	21.7366
6150.000000	102.470337	18.9592
6220.000000	102.135201	16.8108
6300.000000	101.661301	15.4171
6400.000000	101.041229	15.1945
6500.000000	100.484970	16.3703
6600.000000	100.032532	18.4920
6700.000000	99.707794	21.3232
6800.000000	99.526939	24.4639
6900.000000	99.479431	27.6411
7000.000000	99.542595	30.7813
7100.000000	99.728996	33.7321
7200.000000	100.038612	36.3826
7300.000000	100.463959	38.4517
7400.000000	100.988235	39.7966
7500.000000	101.594292	40.1814
7620.000000	102.395164	39.0662
7750.000000	103.241165	35.4396
7880.000000	103.861237	29.1881
8000.000000	104.029961	21.9320
8120.000000	103.737122	14.9755
8250.000000	103.064400	9.5868
8380.000000	102.290169	7.0299
8500.000000	101.700577	6.7775
8620.000000	101.351830	7.6815
8750.000000	101.334740	8.8231
8850.000000	101.580002	8.6904
9000.000000	101.995346	4.4867
9120.000000	101.926018	-0.8837
9250.000000	101.474152	-5.7076
9380.000000	100.939026	-8.7424
9500.000000	100.527344	-10.7407
9620.000000	100.193542	-12.7198
9750.000000	99.866241	-15.3857
9880.000000	99.457985	-18.6938
10000.000000	98.935150	-21.7955
10150.000000	98.069191	-24.8644
10300.000000	97.097855	-26.1383
10440.000000	96.246758	-25.4769
10600.000000	95.481834	-23.3221
10750.000000	95.023796	-20.7026
10900.000000	94.802246	-18.2459
11060.000000	94.756104	-16.3964
11200.000000	94.822639	-15.5583
11380.000000	95.018654	-15.5543
11500.000000	95.170021	-16.4377
11720.000000	95.381149	-19.4119
11800.000000	95.443863	-20.7313
12060.000000	95.504997	-25.6469
12200.000000	95.515404	-28.3893
12410.000000	95.550713	-32.4083
12500.000000	95.598946	-34.1292
12650.000000	95.736855	-37.0956
12800.000000	95.982079	-40.3729
13150.000000	97.041916	-50.8545
13200.000000	97.256668	-52.8991
13400.000000	98.220673	-63.1706
13600.000000	99.208748	-78.1719
13800.000000	99.704483	-98.7492
14000.000000	99.128471	-121.7175
14300.000000	96.711578	-149.7169
14500.000000	94.900352	-162.7210
14750.000000	92.902229	-174.8867
15000.000000	91.315971	175.2239
15250.000000	90.198219	166.2609
15500.000000	89.540474	157.2103
15750.000000	89.394051	146.2765
16000.000000	89.579895	131.0567
16250.000000	89.412636	112.1591
16500.000000	89.039154	93.6657
16750.000000	88.939011	74.9615
17000.000000	89.297478	54.1100
17250.000000	90.223770	28.3840
17500.000000	91.281792	-6.7215
17750.000000	91.705635	-49.2141
18000.000000	91.485382	-95.7003
18250.000000	91.156113	-145.0002
18500.000000	90.416847	158.7830
18750.000000	89.889427	99.5720
19000.000000	88.972656	28.2166
19250.000000	86.941277	-48.0707
19500.000000	84.352669	-129.0168
19750.000000	81.262367	142.9095
