* Measurement data measured by REW V5.20.9
* Source: Microphone (Conexant SmartAudio HD), MICROPHONE (Master Volume), L, volume: 0.050
* Format: 256k Log Swept Sine, 1 sweep at -12.0 dBFS with no timing reference
* Dated: 10 6, 23 10:23:28 PM
* REW Settings:
*  C-weighting compensation: Off
*  Target level: 75.0 dB
* Note: 
* Measurement: AFUL Performer 8 S2 R
* Smoothing: 1/12 octave
* Frequency Step: 1/48 octave
* Start Frequency: 20.300 Hz
*
* Freq(Hz)	SPL(dB)	Phase(degrees)
20.299999	101.760	49.5903
20.600000	101.774	49.1305
20.900000	101.807	48.1627
21.200001	101.842	47.1139
21.400000	101.866	46.4218
21.799999	101.912	45.0774
22.000000	101.935	44.4282
22.400000	101.981	43.1584
22.700001	102.015	42.2181
23.000000	102.047	41.2775
23.299999	102.077	40.3338
23.600000	102.103	39.3932
24.000000	102.133	38.1651
24.299999	102.153	37.2859
24.700001	102.179	36.1912
25.000000	102.199	35.4292
25.400000	102.229	34.4701
25.799999	102.260	33.5280
26.200001	102.288	32.5489
26.500000	102.304	31.7681
26.900000	102.321	30.6595
27.200001	102.330	29.7899
27.600000	102.343	28.6125
28.000000	102.361	27.4604
28.500000	102.394	26.1100
29.000000	102.428	24.8808
29.500000	102.440	23.7752
30.000000	102.410	22.8231
30.400000	102.357	22.2016
30.700001	102.310	21.8154
31.100000	102.258	21.3535
31.500000	102.236	20.8534
32.000000	102.260	20.0092
32.500000	102.322	18.8522
33.000000	102.386	17.5133
33.500000	102.431	16.2143
34.000000	102.457	15.1018
34.500000	102.473	14.1553
35.000000	102.484	13.2676
35.500000	102.491	12.3532
36.000000	102.494	11.4029
36.500000	102.495	10.4465
37.000000	102.496	9.5107
37.500000	102.495	8.6073
38.200001	102.484	7.4145
38.700001	102.471	6.6217
39.500000	102.457	5.4220
40.000000	102.458	4.6767
40.599998	102.462	3.7679
41.200001	102.463	2.8671
41.799999	102.453	2.0120
42.500000	102.431	1.0797
43.099998	102.406	0.2978
43.700001	102.378	-0.5059
44.400002	102.345	-1.4779
45.000000	102.322	-2.3240
45.500000	102.307	-3.0266
46.200001	102.297	-3.9970
46.799999	102.296	-4.8115
47.500000	102.299	-5.7323
48.200001	102.299	-6.6026
48.700001	102.294	-7.1836
49.400002	102.278	-7.9489
50.000000	102.257	-8.5929
50.799999	102.223	-9.4942
51.500000	102.195	-10.3445
52.200001	102.177	-11.2273
53.000000	102.165	-12.2130
53.799999	102.152	-13.1140
54.500000	102.130	-13.8203
55.200001	102.100	-14.4748
56.000000	102.064	-15.2101
57.000000	102.017	-16.1590
58.000000	101.969	-17.1303
59.000000	101.925	-18.0983
60.000000	101.895	-19.0148
60.799999	101.880	-19.6726
61.500000	101.863	-20.2024
62.200001	101.837	-20.7204
63.000000	101.794	-21.3342
64.000000	101.737	-22.1662
65.000000	101.690	-23.0627
66.000000	101.650	-23.9715
67.000000	101.608	-24.8368
68.000000	101.562	-25.6416
69.000000	101.515	-26.4070
70.000000	101.467	-27.1661
71.000000	101.419	-27.9337
72.000000	101.372	-28.6944
73.000000	101.328	-29.4247
74.000000	101.281	-30.1127
75.000000	101.228	-30.7708
76.199997	101.165	-31.5619
77.500000	101.099	-32.4385
78.800003	101.031	-33.2976
80.000000	100.961	-34.0463
81.199997	100.892	-34.7624
82.500000	100.818	-35.5218
83.800003	100.745	-36.2714
85.000000	100.677	-36.9517
86.199997	100.610	-37.6171
87.500000	100.532	-38.3182
88.500000	100.470	-38.8416
90.000000	100.375	-39.5982
91.199997	100.300	-40.1808
92.500000	100.221	-40.8021
93.800003	100.143	-41.4116
95.000000	100.072	-41.9456
96.199997	100.000	-42.4588
97.500000	99.919	-43.0192
98.800003	99.835	-43.5719
100.000000	99.752	-44.0258
101.500000	99.624	-44.4753
103.000000	99.470	-44.7770
104.400002	99.324	-44.8940
106.000000	99.171	-44.7768
107.500000	99.043	-44.3336
109.000000	98.930	-43.5594
110.599998	98.843	-42.5006
112.000000	98.831	-41.5088
113.800003	98.961	-40.3517
115.000000	99.149	-39.7881
117.199997	99.632	-39.1634
118.000000	99.819	-39.0384
120.599998	100.261	-40.1997
122.000000	100.338	-42.1357
124.099998	100.331	-45.4145
125.000000	100.309	-46.6450
126.500000	100.259	-48.3811
128.000000	100.197	-49.7955
131.500000	100.038	-52.3883
132.000000	100.016	-52.7054
134.000000	99.929	-53.8625
136.000000	99.842	-54.8710
138.000000	99.759	-55.7779
140.000000	99.678	-56.6171
143.000000	99.563	-57.8091
145.000000	99.490	-58.5789
147.500000	99.402	-59.4958
150.000000	99.316	-60.3483
152.500000	99.230	-61.1611
155.000000	99.143	-61.9418
157.500000	99.056	-62.6801
160.000000	98.973	-63.3855
162.500000	98.893	-64.0685
165.000000	98.815	-64.7278
167.500000	98.737	-65.3592
170.000000	98.660	-65.9648
172.500000	98.587	-66.5528
175.000000	98.518	-67.1271
177.500000	98.451	-67.6853
180.000000	98.385	-68.2235
182.500000	98.320	-68.7417
185.000000	98.255	-69.2408
187.500000	98.193	-69.7205
190.000000	98.131	-70.1784
192.500000	98.072	-70.6100
195.000000	98.013	-71.0130
197.500000	97.957	-71.3871
200.000000	97.904	-71.7324
203.000000	97.847	-72.1142
206.000000	97.797	-72.4767
209.000000	97.753	-72.8400
212.000000	97.711	-73.2109
214.000000	97.683	-73.4558
218.000000	97.620	-73.9004
220.000000	97.587	-74.0789
224.000000	97.525	-74.3026
227.000000	97.494	-74.3489
230.000000	97.488	-74.3332
233.000000	97.513	-74.3393
236.000000	97.565	-74.4691
240.000000	97.653	-74.9495
243.000000	97.712	-75.5376
247.000000	97.763	-76.5141
250.000000	97.777	-77.2947
254.000000	97.767	-78.2973
258.000000	97.737	-79.2049
262.000000	97.699	-80.0084
265.000000	97.668	-80.5507
269.000000	97.627	-81.2085
272.000000	97.597	-81.6610
276.000000	97.559	-82.2177
280.000000	97.523	-82.7310
285.000000	97.481	-83.3255
290.000000	97.442	-83.8767
295.000000	97.407	-84.3935
300.000000	97.375	-84.8835
304.000000	97.352	-85.2594
307.000000	97.335	-85.5321
311.000000	97.314	-85.8841
315.000000	97.296	-86.2239
320.000000	97.276	-86.6332
325.000000	97.258	-87.0273
330.000000	97.243	-87.4079
335.000000	97.230	-87.7748
340.000000	97.220	-88.1274
345.000000	97.212	-88.4653
350.000000	97.206	-88.7890
355.000000	97.202	-89.1002
360.000000	97.200	-89.4015
365.000000	97.200	-89.6938
370.000000	97.203	-89.9785
375.000000	97.208	-90.2569
382.000000	97.218	-90.6359
387.000000	97.227	-90.8974
395.000000	97.246	-91.2998
400.000000	97.259	-91.5432
406.000000	97.277	-91.8274
412.000000	97.296	-92.1019
418.000000	97.317	-92.3672
425.000000	97.343	-92.6691
431.000000	97.368	-92.9231
437.000000	97.394	-93.1722
444.000000	97.427	-93.4560
450.000000	97.456	-93.6943
455.000000	97.482	-93.8893
462.000000	97.519	-94.1580
468.000000	97.553	-94.3864
475.000000	97.594	-94.6519
482.000000	97.636	-94.9151
487.000000	97.667	-95.1012
494.000000	97.712	-95.3594
500.000000	97.751	-95.5786
508.000000	97.804	-95.8683
515.000000	97.851	-96.1197
522.000000	97.898	-96.3692
530.000000	97.953	-96.6532
538.000000	98.007	-96.9389
545.000000	98.055	-97.1907
552.000000	98.102	-97.4447
560.000000	98.155	-97.7383
570.000000	98.223	-98.1080
580.000000	98.291	-98.4811
590.000000	98.358	-98.8597
600.000000	98.425	-99.2435
608.000000	98.478	-99.5545
615.000000	98.523	-99.8292
622.000000	98.568	-100.1064
630.000000	98.617	-100.4265
640.000000	98.678	-100.8317
650.000000	98.736	-101.2417
660.000000	98.792	-101.6563
670.000000	98.846	-102.0730
680.000000	98.896	-102.4899
690.000000	98.945	-102.9066
700.000000	98.990	-103.3206
710.000000	99.031	-103.7290
720.000000	99.070	-104.1294
730.000000	99.104	-104.5189
740.000000	99.135	-104.8948
750.000000	99.163	-105.2542
762.000000	99.191	-105.6627
775.000000	99.217	-106.0732
788.000000	99.238	-106.4412
800.000000	99.255	-106.7460
812.000000	99.270	-107.0170
825.000000	99.284	-107.2665
838.000000	99.299	-107.4711
850.000000	99.312	-107.6236
862.000000	99.325	-107.7478
875.000000	99.341	-107.8492
885.000000	99.354	-107.9028
900.000000	99.376	-107.9537
912.000000	99.397	-107.9734
925.000000	99.422	-107.9742
938.000000	99.451	-107.9591
950.000000	99.479	-107.9335
962.000000	99.509	-107.8975
975.000000	99.545	-107.8528
988.000000	99.583	-107.8106
1000.000000	99.621	-107.7763
1015.000000	99.671	-107.7355
1030.000000	99.724	-107.6942
1044.000000	99.774	-107.6637
1060.000000	99.834	-107.6503
1075.000000	99.888	-107.6547
1090.000000	99.940	-107.6678
1106.000000	99.995	-107.6928
1120.000000	100.044	-107.7321
1138.000000	100.108	-107.8066
1150.000000	100.150	-107.8640
1172.000000	100.227	-107.9802
1180.000000	100.255	-108.0276
1206.000000	100.350	-108.2013
1220.000000	100.404	-108.3000
1241.000000	100.489	-108.4499
1250.000000	100.527	-108.5173
1265.000000	100.590	-108.6356
1280.000000	100.654	-108.7578
1315.000000	100.802	-109.0430
1320.000000	100.823	-109.0834
1340.000000	100.909	-109.2431
1360.000000	101.000	-109.4032
1380.000000	101.093	-109.5668
1400.000000	101.189	-109.7281
1430.000000	101.333	-109.9703
1450.000000	101.431	-110.1399
1475.000000	101.553	-110.3578
1500.000000	101.675	-110.5841
1525.000000	101.794	-110.8248
1550.000000	101.909	-111.0839
1575.000000	102.019	-111.3638
1600.000000	102.125	-111.6675
1625.000000	102.226	-111.9986
1650.000000	102.321	-112.3658
1675.000000	102.410	-112.7765
1700.000000	102.492	-113.2324
1725.000000	102.569	-113.7402
1750.000000	102.641	-114.3081
1775.000000	102.709	-114.9387
1800.000000	102.772	-115.6332
1825.000000	102.831	-116.3945
1850.000000	102.886	-117.2241
1875.000000	102.935	-118.1220
1900.000000	102.980	-119.0873
1925.000000	103.020	-120.1182
1950.000000	103.055	-121.2112
1975.000000	103.085	-122.3618
2000.000000	103.110	-123.5648
2030.000000	103.134	-125.0688
2060.000000	103.152	-126.6269
2090.000000	103.163	-128.2257
2120.000000	103.169	-129.8504
2140.000000	103.170	-130.9401
2180.000000	103.165	-133.1149
2200.000000	103.159	-134.1913
2240.000000	103.140	-136.3006
2270.000000	103.119	-137.8289
2300.000000	103.093	-139.2989
2330.000000	103.062	-140.7011
2360.000000	103.026	-142.0276
2400.000000	102.970	-143.6702
2430.000000	102.924	-144.8042
2470.000000	102.857	-146.1845
2500.000000	102.803	-147.1241
2540.000000	102.726	-148.2593
2580.000000	102.644	-149.2727
2620.000000	102.558	-150.1785
2650.000000	102.490	-150.7950
2690.000000	102.398	-151.5426
2720.000000	102.329	-152.0546
2760.000000	102.241	-152.6865
2800.000000	102.160	-153.2767
2850.000000	102.077	-153.9794
2900.000000	102.016	-154.6699
2950.000000	101.979	-155.3729
3000.000000	101.964	-156.1122
3040.000000	101.969	-156.7435
3070.000000	101.980	-157.2455
3110.000000	102.006	-157.9591
3150.000000	102.044	-158.7302
3200.000000	102.107	-159.7829
3250.000000	102.183	-160.9402
3300.000000	102.270	-162.2086
3350.000000	102.365	-163.5957
3400.000000	102.462	-165.1123
3450.000000	102.557	-166.7667
3500.000000	102.643	-168.5593
3550.000000	102.717	-170.4861
3600.000000	102.779	-172.5320
3650.000000	102.828	-174.6675
3700.000000	102.864	-176.8535
3750.000000	102.887	-179.0449
3820.000000	102.900	177.9630
3870.000000	102.898	175.9297
3950.000000	102.884	172.9140
4000.000000	102.870	171.1873
4060.000000	102.851	169.2701
4120.000000	102.829	167.5075
4180.000000	102.805	165.8808
4250.000000	102.775	164.1324
4310.000000	102.744	162.7543
4370.000000	102.706	161.4911
4440.000000	102.650	160.1782
4500.000000	102.590	159.2085
4550.000000	102.529	158.5218
4620.000000	102.429	157.7590
4680.000000	102.332	157.2970
4750.000000	102.209	156.9854
4820.000000	102.081	156.9174
4870.000000	101.989	157.0167
4940.000000	101.862	157.3589
5000.000000	101.759	157.8335
5080.000000	101.633	158.7079
5150.000000	101.537	159.6783
5220.000000	101.456	160.8168
5300.000000	101.383	162.2944
5380.000000	101.331	163.9309
5450.000000	101.301	165.4728
5520.000000	101.285	167.0983
5600.000000	101.287	169.0336
5700.000000	101.318	171.5277
5800.000000	101.380	174.0583
5900.000000	101.471	176.5751
6000.000000	101.585	179.0288
6080.000000	101.687	-179.0870
6150.000000	101.780	-177.5176
6220.000000	101.873	-176.0373
6300.000000	101.976	-174.4658
6400.000000	102.093	-172.6850
6500.000000	102.187	-171.0891
6600.000000	102.254	-169.6346
6700.000000	102.294	-168.2622
6800.000000	102.315	-166.9049
6900.000000	102.329	-165.4931
7000.000000	102.343	-163.9654
7100.000000	102.357	-162.2841
7200.000000	102.374	-160.4483
7300.000000	102.402	-158.4938
7400.000000	102.448	-156.4850
7500.000000	102.524	-154.5132
7620.000000	102.655	-152.3759
7750.000000	102.816	-150.6182
7880.000000	102.930	-149.6860
8000.000000	102.951	-149.6500
8120.000000	102.855	-150.3212
8250.000000	102.571	-151.5108
8380.000000	102.058	-152.6215
8500.000000	101.376	-153.0464
8620.000000	100.514	-152.4910
8750.000000	99.424	-150.5075
8850.000000	98.509	-147.9332
9000.000000	97.077	-142.3860
9120.000000	95.927	-136.5750
9250.000000	94.724	-129.0256
9380.000000	93.605	-120.3288
9500.000000	92.686	-111.4654
9620.000000	91.904	-102.0235
9750.000000	91.238	-91.4546
9880.000000	90.765	-80.8920
10000.000000	90.478	-71.4232
10150.000000	90.268	-60.1966
10300.000000	90.152	-49.6877
10440.000000	90.079	-40.4097
10600.000000	90.013	-30.2257
10750.000000	89.961	-20.9173
10900.000000	89.927	-11.7374
11060.000000	89.915	-2.0282
11200.000000	89.928	6.4253
11380.000000	89.979	17.2569
11500.000000	90.041	24.4477
11720.000000	90.217	37.5015
11800.000000	90.303	42.1890
12060.000000	90.668	57.1283
12200.000000	90.923	64.9055
12410.000000	91.368	76.0518
12500.000000	91.573	80.6143
12650.000000	91.921	87.9401
12800.000000	92.272	94.9530
13150.000000	93.091	110.3210
13200.000000	93.209	112.4110
13400.000000	93.692	120.4758
13600.000000	94.182	127.9755
13800.000000	94.660	134.7953
14000.000000	95.093	140.9100
14300.000000	95.604	149.0549
14500.000000	95.847	154.1514
14750.000000	96.081	160.5133
15000.000000	96.318	166.9408
15250.000000	96.658	173.1151
15500.000000	97.174	178.2271
15750.000000	97.812	-179.1468
16000.000000	98.317	179.4906
16250.000000	98.320	174.2930
16500.000000	97.554	168.3345
16750.000000	95.997	165.8109
17000.000000	93.839	168.9327
17250.000000	91.359	177.4125
17500.000000	88.822	-169.9854
17750.000000	86.424	-154.2100
18000.000000	84.302	-135.6883
18250.000000	82.641	-114.9541
18500.000000	81.707	-93.6384
18750.000000	81.511	-74.1521
19000.000000	81.657	-57.6102
19250.000000	81.827	-43.4434
19500.000000	81.960	-31.1225
19750.000000	82.095	-21.2621
