* Measurement data measured by REW V5.20.9
* Source: Microphone (Conexant SmartAudio HD), MICROPHONE (Master Volume), L, volume: 1.000
* Format: 256k Log Swept Sine, 1 sweep at -12.0 dBFS with no timing reference
* Dated: 11 26, 23 6:14:42 PM
* REW Settings:
*  C-weighting compensation: Off
*  Target level: 75.0 dB
* Note: 
* Measurement: Binary Chopin S2 R
* Smoothing: 1/12 octave
* Frequency Step: 1/48 octave
* Start Frequency: 20.300 Hz
*
* Freq(Hz)	SPL(dB)	Phase(degrees)
20.299999	98.389	68.4269
20.600000	98.459	67.4486
20.900000	98.618	65.3728
21.200001	98.759	63.0943
21.400000	98.831	61.6454
21.799999	98.926	59.1678
22.000000	98.957	58.2321
22.400000	99.008	57.0040
22.700001	99.053	56.5148
23.000000	99.112	56.1925
23.299999	99.181	55.8489
23.600000	99.255	55.3623
24.000000	99.349	54.3907
24.299999	99.412	53.4336
24.700001	99.488	51.9578
25.000000	99.540	50.8042
25.400000	99.605	49.3307
25.799999	99.664	48.0326
26.200001	99.711	46.9496
26.500000	99.732	46.2658
26.900000	99.739	45.4874
27.200001	99.729	44.9718
27.600000	99.702	44.3354
28.000000	99.680	43.7037
28.500000	99.691	42.8067
29.000000	99.760	41.6528
29.500000	99.869	40.2137
30.000000	99.980	38.6423
30.400000	100.051	37.4355
30.700001	100.089	36.6016
31.100000	100.121	35.5734
31.500000	100.125	34.5951
32.000000	100.091	33.3965
32.500000	100.025	32.2701
33.000000	99.969	31.2935
33.500000	99.970	30.4299
34.000000	100.045	29.5197
34.500000	100.163	28.4427
35.000000	100.276	27.2350
35.500000	100.351	26.0339
36.000000	100.383	24.9331
36.500000	100.385	23.9285
37.000000	100.375	22.9712
37.500000	100.366	22.0333
38.200001	100.372	20.7490
38.700001	100.389	19.8498
39.500000	100.415	18.4333
40.000000	100.418	17.5682
40.599998	100.412	16.5514
41.200001	100.401	15.5466
41.799999	100.391	14.5573
42.500000	100.380	13.4489
43.099998	100.369	12.5456
43.700001	100.354	11.6649
44.400002	100.335	10.6341
45.000000	100.319	9.7354
45.500000	100.306	8.9850
46.200001	100.284	7.9631
46.799999	100.263	7.1321
47.500000	100.240	6.1912
48.200001	100.222	5.2365
48.700001	100.209	4.5440
49.400002	100.190	3.5917
50.000000	100.171	2.8087
50.799999	100.135	1.7887
51.500000	100.092	0.8982
52.200001	100.043	0.0373
53.000000	99.990	-0.8632
53.799999	99.949	-1.6875
54.500000	99.918	-2.4005
55.200001	99.888	-3.1529
56.000000	99.853	-4.0770
57.000000	99.808	-5.2546
58.000000	99.758	-6.3282
59.000000	99.699	-7.3029
60.000000	99.636	-8.2891
60.799999	99.585	-9.0915
61.500000	99.539	-9.7670
62.200001	99.491	-10.4125
63.000000	99.435	-11.1513
64.000000	99.364	-12.1051
65.000000	99.301	-13.0019
66.000000	99.254	-13.7725
67.000000	99.211	-14.5029
68.000000	99.157	-15.2945
69.000000	99.086	-16.1484
70.000000	99.006	-17.0055
71.000000	98.927	-17.8360
72.000000	98.852	-18.6509
73.000000	98.777	-19.4246
74.000000	98.703	-20.1179
75.000000	98.630	-20.7490
76.199997	98.541	-21.4794
77.500000	98.440	-22.2874
78.800003	98.332	-23.1383
80.000000	98.233	-23.9091
81.199997	98.141	-24.6183
82.500000	98.046	-25.3600
83.800003	97.951	-26.1327
85.000000	97.866	-26.8566
86.199997	97.780	-27.5169
87.500000	97.680	-28.1056
88.500000	97.596	-28.4981
90.000000	97.465	-29.0994
91.199997	97.358	-29.6342
92.500000	97.231	-30.2256
93.800003	97.088	-30.7905
95.000000	96.953	-31.3145
96.199997	96.826	-31.8634
97.500000	96.705	-32.4485
98.800003	96.598	-32.9752
100.000000	96.507	-33.4007
101.500000	96.382	-33.8472
103.000000	96.238	-34.2295
104.400002	96.107	-34.6264
106.000000	95.964	-35.1639
107.500000	95.819	-35.6295
109.000000	95.662	-35.9939
110.599998	95.490	-36.2814
112.000000	95.341	-36.4557
113.800003	95.151	-36.4735
115.000000	95.020	-36.2036
117.199997	94.754	-34.5993
118.000000	94.642	-33.7232
120.599998	94.298	-32.5526
122.000000	94.187	-33.6701
124.099998	94.075	-35.2088
125.000000	94.025	-35.3192
126.500000	93.928	-34.8772
128.000000	93.826	-34.0605
131.500000	93.682	-32.1151
132.000000	93.677	-31.8672
134.000000	93.694	-31.1690
136.000000	93.755	-31.1140
138.000000	93.820	-31.5700
140.000000	93.848	-32.2415
143.000000	93.802	-33.2562
145.000000	93.730	-33.7943
147.500000	93.623	-34.3745
150.000000	93.498	-34.9122
152.500000	93.363	-35.4468
155.000000	93.212	-36.1190
157.500000	92.990	-36.8357
160.000000	92.714	-37.2311
162.500000	92.458	-37.0757
165.000000	92.263	-36.7147
167.500000	92.111	-36.4088
170.000000	91.971	-36.1261
172.500000	91.827	-35.7768
175.000000	91.677	-35.4291
177.500000	91.520	-35.0998
180.000000	91.360	-34.7327
182.500000	91.205	-34.3173
185.000000	91.063	-33.8645
187.500000	90.938	-33.3888
190.000000	90.823	-32.9140
192.500000	90.710	-32.4504
195.000000	90.602	-31.9877
197.500000	90.500	-31.5073
200.000000	90.398	-30.9988
203.000000	90.266	-30.3390
206.000000	90.133	-29.6162
209.000000	90.011	-28.8280
212.000000	89.900	-28.0068
214.000000	89.832	-27.4741
218.000000	89.707	-26.4776
220.000000	89.649	-26.0011
224.000000	89.541	-25.0445
227.000000	89.465	-24.3044
230.000000	89.394	-23.5526
233.000000	89.331	-22.7857
236.000000	89.274	-22.0003
240.000000	89.212	-20.9455
243.000000	89.174	-20.1589
247.000000	89.127	-19.1243
250.000000	89.095	-18.3743
254.000000	89.052	-17.4287
258.000000	89.009	-16.5275
262.000000	88.981	-15.6046
265.000000	88.973	-14.9001
269.000000	88.968	-14.0017
272.000000	88.964	-13.3641
276.000000	88.955	-12.5380
280.000000	88.950	-11.7180
285.000000	88.950	-10.6966
290.000000	88.950	-9.7379
295.000000	88.953	-8.8921
300.000000	88.958	-8.0985
304.000000	88.966	-7.4591
307.000000	88.974	-6.9760
311.000000	88.985	-6.3416
315.000000	88.997	-5.7355
320.000000	89.010	-5.0167
325.000000	89.025	-4.3156
330.000000	89.044	-3.6296
335.000000	89.067	-2.9839
340.000000	89.093	-2.3899
345.000000	89.116	-1.8288
350.000000	89.131	-1.2792
355.000000	89.143	-0.7212
360.000000	89.163	-0.1322
365.000000	89.195	0.4858
370.000000	89.228	1.1079
375.000000	89.258	1.6988
382.000000	89.296	2.4876
387.000000	89.324	3.0706
395.000000	89.378	4.0726
400.000000	89.424	4.7220
406.000000	89.497	5.4748
412.000000	89.589	6.1260
418.000000	89.696	6.6144
425.000000	89.823	6.9691
431.000000	89.918	7.1330
437.000000	89.991	7.2174
444.000000	90.054	7.2686
450.000000	90.094	7.3112
455.000000	90.120	7.3667
462.000000	90.152	7.4888
468.000000	90.173	7.6299
475.000000	90.194	7.8220
482.000000	90.213	8.0308
487.000000	90.227	8.1901
494.000000	90.248	8.4330
500.000000	90.267	8.6578
508.000000	90.290	8.9622
515.000000	90.310	9.2145
522.000000	90.330	9.4558
530.000000	90.352	9.7406
538.000000	90.374	10.0451
545.000000	90.392	10.3188
552.000000	90.411	10.5889
560.000000	90.432	10.8958
570.000000	90.456	11.2893
580.000000	90.481	11.6831
590.000000	90.508	12.0743
600.000000	90.534	12.4640
608.000000	90.555	12.7723
615.000000	90.573	13.0410
622.000000	90.591	13.3093
630.000000	90.613	13.6134
640.000000	90.640	13.9887
650.000000	90.667	14.3616
660.000000	90.692	14.7360
670.000000	90.716	15.1141
680.000000	90.740	15.4975
690.000000	90.766	15.8843
700.000000	90.793	16.2655
710.000000	90.820	16.6400
720.000000	90.846	17.0244
730.000000	90.872	17.4308
740.000000	90.902	17.8502
750.000000	90.934	18.2729
762.000000	90.975	18.7773
775.000000	91.017	19.3177
788.000000	91.060	19.8522
800.000000	91.102	20.3462
812.000000	91.148	20.8560
825.000000	91.208	21.4321
838.000000	91.284	21.9779
850.000000	91.361	22.4122
862.000000	91.432	22.8184
875.000000	91.498	23.3011
885.000000	91.538	23.7109
900.000000	91.588	24.3264
912.000000	91.623	24.7952
925.000000	91.667	25.2915
938.000000	91.722	25.7612
950.000000	91.784	26.1467
962.000000	91.857	26.4949
975.000000	91.947	26.8590
988.000000	92.045	27.2021
1000.000000	92.140	27.4838
1015.000000	92.262	27.8088
1030.000000	92.380	28.1286
1044.000000	92.483	28.4025
1060.000000	92.587	28.6631
1075.000000	92.673	28.8809
1090.000000	92.754	29.0787
1106.000000	92.839	29.2257
1120.000000	92.915	29.2999
1138.000000	93.016	29.3745
1150.000000	93.084	29.4157
1172.000000	93.207	29.4343
1180.000000	93.252	29.4275
1206.000000	93.400	29.3995
1220.000000	93.481	29.3669
1241.000000	93.600	29.2869
1250.000000	93.649	29.2521
1265.000000	93.729	29.1984
1280.000000	93.807	29.1373
1315.000000	93.982	28.9535
1320.000000	94.007	28.9286
1340.000000	94.108	28.8293
1360.000000	94.211	28.7177
1380.000000	94.312	28.6125
1400.000000	94.412	28.5306
1430.000000	94.558	28.4087
1450.000000	94.655	28.3257
1475.000000	94.777	28.2368
1500.000000	94.898	28.1425
1525.000000	95.014	28.0566
1550.000000	95.121	27.9986
1575.000000	95.226	27.9319
1600.000000	95.330	27.8530
1625.000000	95.432	27.7932
1650.000000	95.534	27.7368
1675.000000	95.639	27.6662
1700.000000	95.749	27.5946
1725.000000	95.863	27.5159
1750.000000	95.981	27.4146
1775.000000	96.101	27.3040
1800.000000	96.219	27.1951
1825.000000	96.338	27.0720
1850.000000	96.458	26.9228
1875.000000	96.581	26.7559
1900.000000	96.706	26.5720
1925.000000	96.832	26.3593
1950.000000	96.960	26.1181
1975.000000	97.087	25.8589
2000.000000	97.214	25.5785
2030.000000	97.368	25.1961
2060.000000	97.525	24.7639
2090.000000	97.683	24.2900
2120.000000	97.841	23.7670
2140.000000	97.947	23.3885
2180.000000	98.156	22.5696
2200.000000	98.258	22.1290
2240.000000	98.462	21.1665
2270.000000	98.614	20.3692
2300.000000	98.762	19.5164
2330.000000	98.906	18.6083
2360.000000	99.044	17.6401
2400.000000	99.218	16.2657
2430.000000	99.339	15.1809
2470.000000	99.489	13.6577
2500.000000	99.591	12.4605
2540.000000	99.710	10.8085
2580.000000	99.812	9.0982
2620.000000	99.896	7.3333
2650.000000	99.944	5.9909
2690.000000	99.987	4.2002
2720.000000	100.003	2.8615
2760.000000	100.007	1.0883
2800.000000	99.990	-0.6521
2850.000000	99.941	-2.7525
2900.000000	99.862	-4.7513
2950.000000	99.757	-6.6211
3000.000000	99.630	-8.3409
3040.000000	99.517	-9.6076
3070.000000	99.426	-10.4902
3110.000000	99.296	-11.5688
3150.000000	99.157	-12.5322
3200.000000	98.976	-13.5809
3250.000000	98.792	-14.4639
3300.000000	98.610	-15.1873
3350.000000	98.432	-15.7605
3400.000000	98.259	-16.1925
3450.000000	98.090	-16.4916
3500.000000	97.928	-16.6711
3550.000000	97.777	-16.7434
3600.000000	97.636	-16.7133
3650.000000	97.507	-16.5878
3700.000000	97.391	-16.3839
3750.000000	97.293	-16.1202
3820.000000	97.188	-15.6785
3870.000000	97.136	-15.3319
3950.000000	97.090	-14.7663
4000.000000	97.083	-14.4318
4060.000000	97.096	-14.0873
4120.000000	97.134	-13.8439
4180.000000	97.192	-13.7326
4250.000000	97.273	-13.7981
4310.000000	97.348	-14.0389
4370.000000	97.422	-14.4571
4440.000000	97.504	-15.1642
4500.000000	97.564	-15.9448
4550.000000	97.602	-16.7048
4620.000000	97.633	-17.9094
4680.000000	97.633	-19.0467
4750.000000	97.600	-20.4621
4820.000000	97.527	-21.9304
4870.000000	97.450	-22.9829
4940.000000	97.304	-24.4178
5000.000000	97.145	-25.5712
5080.000000	96.884	-26.9286
5150.000000	96.617	-27.8806
5220.000000	96.320	-28.5544
5300.000000	95.954	-28.9272
5380.000000	95.569	-28.8339
5450.000000	95.226	-28.3515
5520.000000	94.889	-27.4907
5600.000000	94.525	-26.0508
5700.000000	94.128	-23.6141
5800.000000	93.828	-20.5834
5900.000000	93.654	-17.1443
6000.000000	93.628	-13.5557
6080.000000	93.716	-10.7850
6150.000000	93.866	-8.5734
6220.000000	94.071	-6.6630
6300.000000	94.354	-4.9443
6400.000000	94.744	-3.5774
6500.000000	95.131	-3.0635
6600.000000	95.481	-3.2653
6700.000000	95.776	-3.9566
6800.000000	96.020	-4.8945
6900.000000	96.236	-5.8813
7000.000000	96.442	-6.7917
7100.000000	96.658	-7.5848
7200.000000	96.901	-8.3064
7300.000000	97.185	-9.0708
7400.000000	97.516	-10.0344
7500.000000	97.889	-11.3744
7620.000000	98.379	-13.7515
7750.000000	98.900	-17.6163
7880.000000	99.293	-23.0360
8000.000000	99.448	-29.3064
8120.000000	99.349	-36.3362
8250.000000	98.928	-43.9673
8380.000000	98.203	-50.6644
8500.000000	97.316	-55.4204
8620.000000	96.291	-58.5921
8750.000000	95.096	-60.3118
8850.000000	94.162	-60.5810
9000.000000	92.798	-59.6216
9120.000000	91.782	-57.9520
9250.000000	90.775	-55.4748
9380.000000	89.864	-52.4764
9500.000000	89.101	-49.3711
9620.000000	88.411	-46.0382
9750.000000	87.742	-42.2523
9880.000000	87.152	-38.3431
10000.000000	86.668	-34.6613
10150.000000	86.135	-29.9930
10300.000000	85.670	-25.2703
10440.000000	85.295	-20.8178
10600.000000	84.944	-15.6785
10750.000000	84.696	-10.8154
10900.000000	84.531	-5.9193
11060.000000	84.449	-0.6985
11200.000000	84.464	3.8013
11380.000000	84.619	9.3306
11500.000000	84.810	12.7336
11720.000000	85.321	18.0269
11800.000000	85.545	19.5524
12060.000000	86.327	22.6486
12200.000000	86.726	23.0344
12410.000000	87.203	22.0413
12500.000000	87.343	21.1470
12650.000000	87.472	19.2477
12800.000000	87.458	17.1043
13150.000000	86.882	12.8219
13200.000000	86.744	12.4397
13400.000000	86.081	11.8340
13600.000000	85.301	12.9917
13800.000000	84.507	16.0321
14000.000000	83.824	20.7026
14300.000000	83.240	29.5738
14500.000000	83.224	35.8420
14750.000000	83.626	43.1603
15000.000000	84.454	49.1214
15250.000000	85.629	52.7973
15500.000000	86.976	52.9703
15750.000000	88.190	48.4623
16000.000000	88.923	39.2773
16250.000000	88.937	27.7136
16500.000000	88.200	17.5735
16750.000000	86.886	11.6946
17000.000000	85.282	10.7154
17250.000000	83.706	13.8451
17500.000000	82.475	19.8061
17750.000000	81.865	26.9012
18000.000000	81.899	32.9951
18250.000000	82.267	36.6859
18500.000000	82.684	38.2140
18750.000000	83.085	38.3341
19000.000000	83.480	37.1676
19250.000000	83.824	34.4690
19500.000000	84.056	30.4811
19750.000000	84.175	26.3128
