* Measurement data measured by REW V5.20.13
* Source: EXCL: Headset Microphone (Realtek(R) Audio), MICROPHONE (Hauptlautstärke), L, volume: 1,000
* Format: 256k Log Swept Sine, 1 sweep at -8,0 dBFS with no timing reference
* Dated: 21.07.2023 14:39:55
* REW Settings:
*  C-weighting compensation: Off
*  Target level: 75.0 dB
* Note: 
* Measurement: Bowie Classical EQ
* Smoothing: 1/12 octave
* Frequency Step: 1/48 octave
* Start Frequency: 20.000 Hz
*
* Freq(Hz)	SPL(dB)	Phase(degrees)
20.000000	107.303	35.4946
20.299999	107.446	33.7155
20.600000	107.491	32.0793
20.900000	107.498	30.8332
21.200001	107.489	30.0172
21.400000	107.496	29.6254
21.799999	107.548	28.9933
22.000000	107.590	28.6552
22.400000	107.686	27.8155
22.700001	107.749	27.0627
23.000000	107.800	26.2651
23.299999	107.838	25.4667
23.600000	107.867	24.6835
24.000000	107.894	23.6744
24.299999	107.907	22.9560
24.700001	107.919	22.0754
25.000000	107.931	21.4748
25.400000	107.960	20.7016
25.799999	108.004	19.8395
26.200001	108.046	18.7968
26.500000	108.060	17.9215
26.900000	108.046	16.7563
27.200001	108.014	15.9993
27.600000	107.963	15.2461
28.000000	107.933	14.7656
28.500000	107.955	14.3236
29.000000	108.037	13.7513
29.500000	108.147	12.8925
30.000000	108.251	11.7561
30.400000	108.314	10.7294
30.700001	108.346	9.9560
31.100000	108.375	9.0150
31.500000	108.405	8.2190
32.000000	108.477	7.2996
32.500000	108.585	6.0909
33.000000	108.660	4.3099
33.500000	108.618	2.2103
34.000000	108.433	0.5466
34.500000	108.183	-0.0562
35.000000	107.995	0.3034
35.500000	107.947	0.8714
36.000000	107.994	0.9515
36.500000	108.042	0.4426
37.000000	108.040	-0.2861
37.500000	108.007	-0.9053
38.200001	107.979	-1.5918
38.700001	107.979	-2.1647
39.500000	107.966	-3.2975
40.000000	107.942	-3.9976
40.599998	107.909	-4.7575
41.200001	107.876	-5.4653
41.799999	107.841	-6.1328
42.500000	107.795	-6.8193
43.099998	107.758	-7.3287
43.700001	107.729	-7.8261
44.400002	107.699	-8.4608
45.000000	107.668	-9.0636
45.500000	107.638	-9.5956
46.200001	107.591	-10.3707
46.799999	107.548	-11.0544
47.500000	107.501	-11.8798
48.200001	107.458	-12.7690
48.700001	107.426	-13.4448
49.400002	107.370	-14.3723
50.000000	107.319	-15.0643
50.799999	107.271	-15.8383
51.500000	107.251	-16.5079
52.200001	107.238	-17.2655
53.000000	107.202	-18.2010
53.799999	107.131	-19.0480
54.500000	107.050	-19.5836
55.200001	106.974	-19.9273
56.000000	106.911	-20.2573
57.000000	106.850	-20.8313
58.000000	106.777	-21.5732
59.000000	106.687	-22.3444
60.000000	106.592	-23.0725
60.799999	106.523	-23.6285
61.500000	106.467	-24.1173
62.200001	106.411	-24.6063
63.000000	106.346	-25.1385
64.000000	106.264	-25.7389
65.000000	106.184	-26.2921
66.000000	106.104	-26.8394
67.000000	106.019	-27.3881
68.000000	105.929	-27.9163
69.000000	105.841	-28.4195
70.000000	105.757	-28.9087
71.000000	105.677	-29.3889
72.000000	105.598	-29.8608
73.000000	105.516	-30.3137
74.000000	105.430	-30.7395
75.000000	105.340	-31.1500
76.199997	105.228	-31.6439
77.500000	105.106	-32.1809
78.800003	104.989	-32.6962
80.000000	104.889	-33.1441
81.199997	104.791	-33.5452
82.500000	104.682	-33.9030
83.800003	104.569	-34.2233
85.000000	104.461	-34.5491
86.199997	104.352	-34.9215
87.500000	104.240	-35.3528
88.500000	104.160	-35.6744
90.000000	104.042	-36.0613
91.199997	103.944	-36.2548
92.500000	103.826	-36.4205
93.800003	103.695	-36.6838
95.000000	103.572	-37.1503
96.199997	103.458	-37.9257
97.500000	103.340	-39.0769
98.800003	103.204	-40.2098
100.000000	103.059	-40.7014
101.500000	102.923	-40.3007
103.000000	102.867	-39.4534
104.400002	102.820	-38.8069
106.000000	102.722	-38.3710
107.500000	102.597	-38.2213
109.000000	102.471	-38.2484
110.599998	102.352	-38.3582
112.000000	102.257	-38.4374
113.800003	102.130	-38.4543
115.000000	102.037	-38.4236
117.199997	101.864	-38.3739
118.000000	101.802	-38.3707
120.599998	101.619	-38.3670
122.000000	101.526	-38.3296
124.099998	101.387	-38.2148
125.000000	101.327	-38.1533
126.500000	101.223	-38.0410
128.000000	101.117	-37.9102
131.500000	100.873	-37.5094
132.000000	100.839	-37.4530
134.000000	100.711	-37.2810
136.000000	100.587	-37.1802
138.000000	100.467	-37.0677
140.000000	100.354	-36.8884
143.000000	100.185	-36.5095
145.000000	100.070	-36.2377
147.500000	99.923	-35.9153
150.000000	99.774	-35.5803
152.500000	99.625	-35.1931
155.000000	99.480	-34.7789
157.500000	99.345	-34.3859
160.000000	99.218	-33.9739
162.500000	99.100	-33.4698
165.000000	98.985	-32.9036
167.500000	98.868	-32.3615
170.000000	98.749	-31.8542
172.500000	98.633	-31.3333
175.000000	98.518	-30.7839
177.500000	98.401	-30.2199
180.000000	98.285	-29.6478
182.500000	98.176	-29.0558
185.000000	98.072	-28.4192
187.500000	97.968	-27.7175
190.000000	97.868	-26.9703
192.500000	97.778	-26.2449
195.000000	97.692	-25.5862
197.500000	97.600	-24.9498
200.000000	97.495	-24.2101
203.000000	97.363	-23.0574
206.000000	97.242	-21.6819
209.000000	97.148	-20.2262
212.000000	97.106	-18.7869
214.000000	97.116	-17.8990
218.000000	97.201	-16.4545
220.000000	97.254	-15.9028
224.000000	97.341	-15.0085
227.000000	97.378	-14.4166
230.000000	97.399	-13.8871
233.000000	97.414	-13.4824
236.000000	97.426	-13.2267
240.000000	97.426	-13.0063
243.000000	97.406	-12.8254
247.000000	97.361	-12.4978
250.000000	97.318	-12.1846
254.000000	97.251	-11.6840
258.000000	97.175	-11.1074
262.000000	97.099	-10.4803
265.000000	97.046	-9.9834
269.000000	96.981	-9.2977
272.000000	96.936	-8.7732
276.000000	96.881	-8.0626
280.000000	96.827	-7.3381
285.000000	96.762	-6.4219
290.000000	96.701	-5.4939
295.000000	96.645	-4.5604
300.000000	96.597	-3.6266
304.000000	96.568	-2.8776
307.000000	96.549	-2.3177
311.000000	96.524	-1.5824
315.000000	96.496	-0.8580
320.000000	96.460	0.0570
325.000000	96.426	0.9966
330.000000	96.397	1.9504
335.000000	96.372	2.9055
340.000000	96.352	3.8381
345.000000	96.333	4.7336
350.000000	96.313	5.6075
355.000000	96.292	6.4772
360.000000	96.271	7.3534
365.000000	96.251	8.2368
370.000000	96.231	9.1249
375.000000	96.213	10.0198
382.000000	96.194	11.2724
387.000000	96.182	12.1613
395.000000	96.166	13.5745
400.000000	96.157	14.4460
406.000000	96.147	15.4885
412.000000	96.140	16.5402
418.000000	96.140	17.5859
425.000000	96.146	18.7828
431.000000	96.153	19.7976
437.000000	96.157	20.8068
444.000000	96.158	21.9677
450.000000	96.160	22.9454
455.000000	96.162	23.7532
462.000000	96.163	24.8821
468.000000	96.166	25.8467
475.000000	96.173	26.9585
482.000000	96.183	28.0516
487.000000	96.190	28.8287
494.000000	96.198	29.9224
500.000000	96.206	30.8616
508.000000	96.217	32.1118
515.000000	96.227	33.2069
522.000000	96.237	34.3089
530.000000	96.248	35.5721
538.000000	96.262	36.8185
545.000000	96.277	37.8937
552.000000	96.293	38.9631
560.000000	96.314	40.1773
570.000000	96.339	41.6781
580.000000	96.363	43.1730
590.000000	96.386	44.6823
600.000000	96.409	46.1864
608.000000	96.430	47.3716
615.000000	96.447	48.4041
622.000000	96.465	49.4398
630.000000	96.487	50.6232
640.000000	96.517	52.0901
650.000000	96.545	53.5298
660.000000	96.571	54.9400
670.000000	96.599	56.3550
680.000000	96.628	57.8009
690.000000	96.656	59.2626
700.000000	96.685	60.7159
710.000000	96.715	62.1566
720.000000	96.745	63.5983
730.000000	96.774	65.0440
740.000000	96.803	66.4906
750.000000	96.833	67.9355
762.000000	96.872	69.6568
775.000000	96.914	71.5088
788.000000	96.954	73.3647
800.000000	96.991	75.0620
812.000000	97.029	76.7416
825.000000	97.074	78.5603
838.000000	97.122	80.3824
850.000000	97.167	82.0618
862.000000	97.211	83.7242
875.000000	97.255	85.4787
885.000000	97.285	86.7933
900.000000	97.320	88.7475
912.000000	97.339	90.3371
925.000000	97.352	92.1231
938.000000	97.360	94.0010
950.000000	97.370	95.8193
962.000000	97.387	97.7037
975.000000	97.417	99.7867
988.000000	97.457	101.8638
1000.000000	97.504	103.7485
1015.000000	97.573	106.0634
1030.000000	97.647	108.3457
1044.000000	97.715	110.4428
1060.000000	97.792	112.7952
1075.000000	97.865	114.9595
1090.000000	97.938	117.0887
1106.000000	98.015	119.3300
1120.000000	98.080	121.2817
1138.000000	98.161	123.7969
1150.000000	98.215	125.4745
1172.000000	98.312	128.5355
1180.000000	98.346	129.6440
1206.000000	98.452	133.2417
1220.000000	98.506	135.1851
1241.000000	98.587	138.1130
1250.000000	98.621	139.3720
1265.000000	98.678	141.4767
1280.000000	98.735	143.5881
1315.000000	98.867	148.5422
1320.000000	98.885	149.2539
1340.000000	98.960	152.1117
1360.000000	99.035	154.9880
1380.000000	99.112	157.8772
1400.000000	99.191	160.7756
1430.000000	99.315	165.1620
1450.000000	99.404	168.1157
1475.000000	99.521	171.8193
1500.000000	99.643	175.5228
1525.000000	99.771	179.2238
1550.000000	99.907	-177.0864
1575.000000	100.049	-173.4139
1600.000000	100.198	-169.7618
1625.000000	100.354	-166.1315
1650.000000	100.517	-162.5345
1675.000000	100.686	-158.9958
1700.000000	100.857	-155.5244
1725.000000	101.032	-152.1159
1750.000000	101.211	-148.7698
1775.000000	101.391	-145.4919
1800.000000	101.570	-142.2892
1825.000000	101.744	-139.1622
1850.000000	101.911	-136.1099
1875.000000	102.072	-133.1281
1900.000000	102.225	-130.2098
1925.000000	102.368	-127.3454
1950.000000	102.501	-124.5184
1975.000000	102.622	-121.7132
2000.000000	102.730	-118.9192
2030.000000	102.843	-115.5663
2060.000000	102.939	-112.1948
2090.000000	103.020	-108.7890
2120.000000	103.090	-105.3294
2140.000000	103.130	-102.9850
2180.000000	103.201	-98.2015
2200.000000	103.232	-95.7662
2240.000000	103.290	-90.8198
2270.000000	103.333	-87.0493
2300.000000	103.375	-83.2278
2330.000000	103.418	-79.3598
2360.000000	103.462	-75.4567
2400.000000	103.526	-70.2155
2430.000000	103.577	-66.2628
2470.000000	103.650	-60.9700
2500.000000	103.706	-56.9949
2540.000000	103.783	-51.7081
2580.000000	103.860	-46.4448
2620.000000	103.937	-41.2050
2650.000000	103.993	-37.2895
2690.000000	104.066	-32.0864
2720.000000	104.118	-28.1960
2760.000000	104.182	-23.0212
2800.000000	104.242	-17.8593
2850.000000	104.310	-11.4235
2900.000000	104.367	-4.9924
2950.000000	104.414	1.4290
3000.000000	104.448	7.8228
3040.000000	104.464	12.9191
3070.000000	104.469	16.7349
3110.000000	104.465	21.8207
3150.000000	104.450	26.9112
3200.000000	104.416	33.2960
3250.000000	104.364	39.7316
3300.000000	104.293	46.2393
3350.000000	104.205	52.8303
3400.000000	104.101	59.5115
3450.000000	103.982	66.2851
3500.000000	103.850	73.1577
3550.000000	103.706	80.1393
3600.000000	103.550	87.2368
3650.000000	103.385	94.4543
3700.000000	103.210	101.7940
3750.000000	103.025	109.2588
3820.000000	102.752	119.9338
3870.000000	102.546	127.7394
3950.000000	102.200	140.5955
4000.000000	101.976	148.8879
4060.000000	101.704	159.1253
4120.000000	101.441	169.6926
4180.000000	101.201	-179.4399
4250.000000	100.976	-166.6089
4310.000000	100.850	-155.9850
4370.000000	100.791	-146.3879
4440.000000	100.814	-136.9792
4500.000000	100.935	-130.2648
4550.000000	101.117	-125.3615
4620.000000	101.479	-119.3718
4680.000000	101.859	-115.0773
4750.000000	102.329	-111.1601
4820.000000	102.763	-108.4825
4870.000000	103.015	-107.2729
4940.000000	103.245	-106.3126
5000.000000	103.313	-105.8421
5080.000000	103.225	-105.1573
5150.000000	103.017	-104.1278
5220.000000	102.731	-102.5486
5300.000000	102.358	-100.0994
5380.000000	101.974	-97.0862
5450.000000	101.645	-94.0983
5520.000000	101.331	-90.8690
5600.000000	100.990	-86.9572
5700.000000	100.592	-81.8074
5800.000000	100.226	-76.4321
5900.000000	99.896	-70.8995
6000.000000	99.603	-65.2534
6080.000000	99.394	-60.6774
6150.000000	99.229	-56.6574
6220.000000	99.079	-52.6430
6300.000000	98.924	-48.0626
6400.000000	98.750	-42.3107
6500.000000	98.601	-36.4615
6600.000000	98.490	-30.4605
6700.000000	98.435	-24.3224
6800.000000	98.452	-18.1328
6900.000000	98.546	-11.9917
7000.000000	98.718	-5.9761
7100.000000	98.972	-0.1448
7200.000000	99.313	5.4371
7300.000000	99.748	10.6797
7400.000000	100.278	15.4677
7500.000000	100.903	19.6746
7620.000000	101.773	23.7469
7750.000000	102.837	26.5712
7880.000000	103.959	27.1545
8000.000000	104.929	25.1351
8120.000000	105.690	20.3969
8250.000000	106.116	12.6882
8380.000000	106.026	3.8569
8500.000000	105.488	-3.5062
8620.000000	104.600	-8.8638
8750.000000	103.394	-11.9423
8850.000000	102.392	-12.5497
9000.000000	100.912	-11.2590
9120.000000	99.822	-8.8884
9250.000000	98.773	-5.4662
9380.000000	97.870	-1.4982
9500.000000	97.159	2.4382
9620.000000	96.555	6.5056
9750.000000	96.011	10.9523
9880.000000	95.570	15.3347
10000.000000	95.239	19.2464
10150.000000	94.909	23.9188
10300.000000	94.665	28.3746
10440.000000	94.523	32.3071
10600.000000	94.463	36.3524
10750.000000	94.476	39.5419
10900.000000	94.517	42.1265
11060.000000	94.571	44.3163
11200.000000	94.624	45.8389
11380.000000	94.700	47.3042
11500.000000	94.751	47.9731
11720.000000	94.832	48.6374
11800.000000	94.856	48.7452
12060.000000	94.954	48.7133
12200.000000	95.035	48.2992
12410.000000	95.157	46.7821
12500.000000	95.185	45.8176
12650.000000	95.183	44.0007
12800.000000	95.132	42.1819
13150.000000	95.037	38.0392
13200.000000	95.035	37.3477
13400.000000	95.028	34.1342
13600.000000	94.985	30.3878
13800.000000	94.911	26.4255
14000.000000	94.853	22.3016
14300.000000	94.846	15.3634
14500.000000	94.891	10.0864
14750.000000	95.079	2.8674
15000.000000	95.579	-5.8052
15250.000000	96.406	-18.0165
15500.000000	97.284	-36.3749
15750.000000	97.735	-62.3106
16000.000000	97.317	-93.4522
16250.000000	95.874	-124.1044
16500.000000	93.574	-150.1040
16750.000000	90.776	-171.5422
17000.000000	87.904	168.9168
17250.000000	85.331	148.7469
17500.000000	83.097	128.3929
17750.000000	80.847	112.5396
18000.000000	78.517	104.6052
18250.000000	76.802	101.4609
18500.000000	76.331	98.5660
18750.000000	76.808	94.4228
19000.000000	77.701	89.3647
19250.000000	78.730	83.9079
19500.000000	79.733	78.4950
19750.000000	80.547	73.8298
