* Measurement data measured by REW V5.20.13
* Source: EXCL: Headset Microphone (Realtek(R) Audio), MICROPHONE (Hauptlautstärke), L, volume: 1,000
* Format: 256k Log Swept Sine, 1 sweep at -8,0 dBFS with no timing reference
* Dated: 21.07.2023 14:40:49
* REW Settings:
*  C-weighting compensation: Off
*  Target level: 75.0 dB
* Note: 
* Measurement: Bowie Original EQ
* Smoothing: 1/12 octave
* Frequency Step: 1/48 octave
* Start Frequency: 20.000 Hz
*
* Freq(Hz)	SPL(dB)	Phase(degrees)
20.000000	106.842	38.8157
20.299999	106.848	38.4207
20.600000	106.912	37.4402
20.900000	106.958	35.9128
21.200001	106.936	34.2057
21.400000	106.888	33.2204
21.799999	106.766	31.8317
22.000000	106.721	31.4442
22.400000	106.718	31.0304
22.700001	106.794	30.6902
23.000000	106.904	30.0787
23.299999	107.007	29.2002
23.600000	107.082	28.1859
24.000000	107.130	26.8981
24.299999	107.143	26.1441
24.700001	107.164	25.4486
25.000000	107.198	25.0614
25.400000	107.269	24.5487
25.799999	107.351	23.9042
26.200001	107.424	23.1160
26.500000	107.464	22.4796
26.900000	107.501	21.6428
27.200001	107.523	21.0523
27.600000	107.556	20.2976
28.000000	107.601	19.4900
28.500000	107.660	18.2412
29.000000	107.679	16.7180
29.500000	107.626	15.2350
30.000000	107.528	14.2581
30.400000	107.473	13.9403
30.700001	107.473	13.8614
31.100000	107.537	13.6802
31.500000	107.643	13.1568
32.000000	107.759	11.9207
32.500000	107.794	10.3849
33.000000	107.752	9.0867
33.500000	107.688	8.2478
34.000000	107.651	7.7078
34.500000	107.645	7.1962
35.000000	107.650	6.6166
35.500000	107.654	6.0242
36.000000	107.666	5.4489
36.500000	107.691	4.8160
37.000000	107.719	4.0414
37.500000	107.731	3.1495
38.200001	107.714	1.9307
38.700001	107.692	1.1936
39.500000	107.671	0.1785
40.000000	107.668	-0.4392
40.599998	107.665	-1.1900
41.200001	107.660	-1.9360
41.799999	107.653	-2.6729
42.500000	107.639	-3.5261
43.099998	107.624	-4.2506
43.700001	107.606	-4.9724
44.400002	107.583	-5.8204
45.000000	107.561	-6.5497
45.500000	107.543	-7.1499
46.200001	107.518	-7.9723
46.799999	107.499	-8.6661
47.500000	107.479	-9.4652
48.200001	107.457	-10.2314
48.700001	107.442	-10.7465
49.400002	107.424	-11.4373
50.000000	107.412	-12.0372
50.799999	107.391	-12.8821
51.500000	107.362	-13.6453
52.200001	107.324	-14.3966
53.000000	107.275	-15.2094
53.799999	107.233	-15.9762
54.500000	107.209	-16.6623
55.200001	107.192	-17.4070
56.000000	107.172	-18.3017
57.000000	107.146	-19.3954
58.000000	107.119	-20.4506
59.000000	107.083	-21.4263
60.000000	107.042	-22.2609
60.799999	107.013	-22.8737
61.500000	106.989	-23.4100
62.200001	106.961	-23.9536
63.000000	106.925	-24.5751
64.000000	106.873	-25.3326
65.000000	106.819	-26.0562
66.000000	106.767	-26.7567
67.000000	106.717	-27.4500
68.000000	106.668	-28.1403
69.000000	106.620	-28.8273
70.000000	106.572	-29.5043
71.000000	106.524	-30.1630
72.000000	106.475	-30.8032
73.000000	106.427	-31.4258
74.000000	106.378	-32.0310
75.000000	106.329	-32.6271
76.199997	106.272	-33.3439
77.500000	106.207	-34.1144
78.800003	106.141	-34.8500
80.000000	106.080	-35.4934
81.199997	106.020	-36.1226
82.500000	105.950	-36.8080
83.800003	105.878	-37.5018
85.000000	105.814	-38.1536
86.199997	105.756	-38.8032
87.500000	105.701	-39.4741
88.500000	105.663	-39.9570
90.000000	105.599	-40.6314
91.199997	105.535	-41.1436
92.500000	105.455	-41.7307
93.800003	105.376	-42.4359
95.000000	105.322	-43.2289
96.199997	105.298	-44.1637
97.500000	105.301	-45.3347
98.800003	105.292	-46.5577
100.000000	105.228	-47.3963
101.500000	105.097	-47.6476
103.000000	104.979	-47.3805
104.400002	104.886	-47.2317
106.000000	104.784	-47.4288
107.500000	104.691	-47.9014
109.000000	104.609	-48.4772
110.599998	104.533	-49.0494
112.000000	104.470	-49.4779
113.800003	104.385	-49.9871
115.000000	104.325	-50.3510
117.199997	104.214	-51.1045
118.000000	104.175	-51.3887
120.599998	104.055	-52.2480
122.000000	103.992	-52.6540
124.099998	103.895	-53.2209
125.000000	103.852	-53.4620
126.500000	103.782	-53.8699
128.000000	103.712	-54.2824
131.500000	103.555	-55.2356
132.000000	103.533	-55.3712
134.000000	103.444	-55.9180
136.000000	103.353	-56.4691
138.000000	103.259	-56.9998
140.000000	103.163	-57.4800
143.000000	103.026	-58.1315
145.000000	102.938	-58.5787
147.500000	102.829	-59.1609
150.000000	102.724	-59.7327
152.500000	102.624	-60.2726
155.000000	102.522	-60.7720
157.500000	102.415	-61.2517
160.000000	102.310	-61.7510
162.500000	102.209	-62.2604
165.000000	102.110	-62.7250
167.500000	102.005	-63.1304
170.000000	101.895	-63.5198
172.500000	101.783	-63.9069
175.000000	101.673	-64.2637
177.500000	101.563	-64.5853
180.000000	101.452	-64.8970
182.500000	101.344	-65.2037
185.000000	101.241	-65.4708
187.500000	101.141	-65.6797
190.000000	101.045	-65.8550
192.500000	100.952	-66.0068
195.000000	100.861	-66.0975
197.500000	100.767	-66.1213
200.000000	100.664	-66.1388
203.000000	100.532	-66.1672
206.000000	100.408	-66.0636
209.000000	100.314	-65.7502
212.000000	100.260	-65.3606
214.000000	100.248	-65.1547
218.000000	100.259	-64.9949
220.000000	100.272	-65.0624
224.000000	100.294	-65.4619
227.000000	100.307	-65.9073
230.000000	100.318	-66.4276
233.000000	100.324	-67.0257
236.000000	100.317	-67.7058
240.000000	100.278	-68.6902
243.000000	100.224	-69.4304
247.000000	100.129	-70.3627
250.000000	100.047	-71.0021
254.000000	99.930	-71.7534
258.000000	99.810	-72.3973
262.000000	99.689	-72.9662
265.000000	99.599	-73.3529
269.000000	99.481	-73.8169
272.000000	99.395	-74.1318
276.000000	99.283	-74.5165
280.000000	99.177	-74.8782
285.000000	99.051	-75.3171
290.000000	98.929	-75.7292
295.000000	98.810	-76.1171
300.000000	98.693	-76.4844
304.000000	98.600	-76.7638
307.000000	98.531	-76.9700
311.000000	98.443	-77.2467
315.000000	98.359	-77.5201
320.000000	98.257	-77.8346
325.000000	98.151	-78.1072
330.000000	98.044	-78.3564
335.000000	97.941	-78.6020
340.000000	97.844	-78.8466
345.000000	97.751	-79.0925
350.000000	97.659	-79.3388
355.000000	97.568	-79.5778
360.000000	97.477	-79.8093
365.000000	97.388	-80.0350
370.000000	97.301	-80.2504
375.000000	97.215	-80.4495
382.000000	97.095	-80.6836
387.000000	97.012	-80.8160
395.000000	96.882	-81.0286
400.000000	96.802	-81.1870
406.000000	96.707	-81.3882
412.000000	96.615	-81.5756
418.000000	96.527	-81.7478
425.000000	96.429	-81.9528
431.000000	96.347	-82.1420
437.000000	96.267	-82.3264
444.000000	96.181	-82.5140
450.000000	96.111	-82.6628
455.000000	96.053	-82.7861
462.000000	95.970	-82.9468
468.000000	95.897	-83.0674
475.000000	95.810	-83.2015
482.000000	95.724	-83.3397
487.000000	95.665	-83.4372
494.000000	95.584	-83.5689
500.000000	95.516	-83.6687
508.000000	95.427	-83.7688
515.000000	95.351	-83.8445
522.000000	95.281	-83.9351
530.000000	95.206	-84.0532
538.000000	95.134	-84.1631
545.000000	95.069	-84.2448
552.000000	95.002	-84.3140
560.000000	94.926	-84.3768
570.000000	94.840	-84.4442
580.000000	94.758	-84.5068
590.000000	94.679	-84.5682
600.000000	94.604	-84.6215
608.000000	94.545	-84.6489
615.000000	94.496	-84.6646
622.000000	94.449	-84.6775
630.000000	94.396	-84.6866
640.000000	94.333	-84.6779
650.000000	94.273	-84.6561
660.000000	94.215	-84.6307
670.000000	94.161	-84.5869
680.000000	94.109	-84.5319
690.000000	94.059	-84.4849
700.000000	94.010	-84.4396
710.000000	93.965	-84.3801
720.000000	93.926	-84.3135
730.000000	93.891	-84.2494
740.000000	93.861	-84.1836
750.000000	93.834	-84.1105
762.000000	93.803	-83.9999
775.000000	93.774	-83.8577
788.000000	93.752	-83.7151
800.000000	93.736	-83.5697
812.000000	93.726	-83.4254
825.000000	93.723	-83.3068
838.000000	93.727	-83.2180
850.000000	93.732	-83.1487
862.000000	93.738	-83.0992
875.000000	93.746	-83.0801
885.000000	93.753	-83.0935
900.000000	93.761	-83.1421
912.000000	93.762	-83.1839
925.000000	93.759	-83.2070
938.000000	93.752	-83.1728
950.000000	93.750	-83.0714
962.000000	93.757	-82.8976
975.000000	93.783	-82.6340
988.000000	93.824	-82.3354
1000.000000	93.871	-82.0884
1015.000000	93.936	-81.8766
1030.000000	94.008	-81.7842
1044.000000	94.080	-81.7703
1060.000000	94.167	-81.7910
1075.000000	94.250	-81.8435
1090.000000	94.333	-81.9353
1106.000000	94.422	-82.0800
1120.000000	94.500	-82.2419
1138.000000	94.600	-82.4811
1150.000000	94.667	-82.6603
1172.000000	94.786	-83.0442
1180.000000	94.829	-83.1997
1206.000000	94.966	-83.7411
1220.000000	95.038	-84.0445
1241.000000	95.142	-84.5042
1250.000000	95.185	-84.7037
1265.000000	95.254	-85.0468
1280.000000	95.322	-85.4041
1315.000000	95.479	-86.2453
1320.000000	95.501	-86.3637
1340.000000	95.586	-86.8304
1360.000000	95.670	-87.2882
1380.000000	95.755	-87.7393
1400.000000	95.838	-88.1849
1430.000000	95.960	-88.8543
1450.000000	96.042	-89.3102
1475.000000	96.146	-89.8761
1500.000000	96.247	-90.4119
1525.000000	96.352	-90.9312
1550.000000	96.459	-91.4514
1575.000000	96.566	-91.9565
1600.000000	96.675	-92.4509
1625.000000	96.787	-92.9530
1650.000000	96.905	-93.4611
1675.000000	97.027	-93.9556
1700.000000	97.151	-94.4286
1725.000000	97.277	-94.8978
1750.000000	97.404	-95.3727
1775.000000	97.534	-95.8442
1800.000000	97.668	-96.3170
1825.000000	97.804	-96.8037
1850.000000	97.943	-97.3068
1875.000000	98.086	-97.8181
1900.000000	98.232	-98.3253
1925.000000	98.382	-98.8315
1950.000000	98.534	-99.3513
1975.000000	98.688	-99.8893
2000.000000	98.846	-100.4386
2030.000000	99.041	-101.1156
2060.000000	99.243	-101.8228
2090.000000	99.449	-102.5654
2120.000000	99.657	-103.3424
2140.000000	99.797	-103.8795
2180.000000	100.082	-104.9968
2200.000000	100.227	-105.5726
2240.000000	100.521	-106.7649
2270.000000	100.745	-107.7106
2300.000000	100.970	-108.7087
2330.000000	101.197	-109.7572
2360.000000	101.426	-110.8549
2400.000000	101.735	-112.4005
2430.000000	101.966	-113.6240
2470.000000	102.272	-115.3528
2500.000000	102.500	-116.7253
2540.000000	102.801	-118.6487
2580.000000	103.095	-120.6815
2620.000000	103.381	-122.8296
2650.000000	103.589	-124.5111
2690.000000	103.855	-126.8407
2720.000000	104.045	-128.6510
2760.000000	104.283	-131.1405
2800.000000	104.503	-133.7009
2850.000000	104.750	-136.9791
2900.000000	104.970	-140.3314
2950.000000	105.161	-143.7319
3000.000000	105.319	-147.1478
3040.000000	105.419	-149.8740
3070.000000	105.479	-151.9055
3110.000000	105.540	-154.5865
3150.000000	105.581	-157.2186
3200.000000	105.607	-160.4120
3250.000000	105.608	-163.4734
3300.000000	105.587	-166.3846
3350.000000	105.549	-169.1393
3400.000000	105.499	-171.7308
3450.000000	105.440	-174.1537
3500.000000	105.377	-176.4098
3550.000000	105.311	-178.5088
3600.000000	105.247	179.5339
3650.000000	105.187	177.7010
3700.000000	105.133	175.9783
3750.000000	105.087	174.3544
3820.000000	105.035	172.2260
3870.000000	105.007	170.7868
3950.000000	104.979	168.5806
4000.000000	104.973	167.2495
4060.000000	104.978	165.6843
4120.000000	104.997	164.1409
4180.000000	105.032	162.6092
4250.000000	105.093	160.8065
4310.000000	105.162	159.2128
4370.000000	105.247	157.5414
4440.000000	105.365	155.4450
4500.000000	105.482	153.4826
4550.000000	105.589	151.6995
4620.000000	105.747	148.9041
4680.000000	105.881	146.1461
4750.000000	106.014	142.4091
4820.000000	106.083	138.0760
4870.000000	106.069	134.6675
4940.000000	105.933	129.6653
5000.000000	105.697	125.4368
5080.000000	105.218	120.3554
5150.000000	104.682	116.7377
5220.000000	104.081	113.9933
5300.000000	103.365	111.8458
5380.000000	102.660	110.5697
5450.000000	102.071	110.0130
5520.000000	101.516	109.8615
5600.000000	100.923	110.0828
5700.000000	100.242	110.8401
5800.000000	99.625	112.0421
5900.000000	99.071	113.6298
6000.000000	98.580	115.5454
6080.000000	98.230	117.2594
6150.000000	97.953	118.8539
6220.000000	97.700	120.5153
6300.000000	97.436	122.4882
6400.000000	97.139	125.1024
6500.000000	96.879	127.9558
6600.000000	96.668	131.0955
6700.000000	96.524	134.4995
6800.000000	96.458	138.0825
6900.000000	96.476	141.7469
7000.000000	96.581	145.4141
7100.000000	96.775	149.0193
7200.000000	97.060	152.4883
7300.000000	97.443	155.7255
7400.000000	97.926	158.6147
7500.000000	98.508	161.0309
7620.000000	99.331	163.0972
7750.000000	100.348	163.9221
7880.000000	101.425	162.6861
8000.000000	102.358	159.1462
8120.000000	103.083	153.0395
8250.000000	103.472	144.0381
8380.000000	103.343	134.1247
8500.000000	102.767	125.9462
8620.000000	101.841	119.9431
8750.000000	100.590	116.3517
8850.000000	99.554	115.4778
9000.000000	98.019	116.5753
9120.000000	96.883	118.9692
9250.000000	95.783	122.5880
9380.000000	94.826	126.9260
9500.000000	94.066	131.3640
9620.000000	93.413	136.0965
9750.000000	92.815	141.4455
9880.000000	92.317	146.9089
10000.000000	91.934	151.9737
10150.000000	91.541	158.3116
10300.000000	91.230	164.6947
10440.000000	91.022	170.6527
10600.000000	90.889	177.2447
10750.000000	90.837	-176.9711
10900.000000	90.819	-171.5698
11060.000000	90.812	-166.1220
11200.000000	90.809	-161.5461
11380.000000	90.812	-155.8676
11500.000000	90.816	-152.2045
11720.000000	90.817	-145.7032
11800.000000	90.813	-143.3712
12060.000000	90.819	-135.7850
12200.000000	90.854	-131.8350
12410.000000	90.917	-126.4812
12500.000000	90.925	-124.3933
12650.000000	90.889	-120.9880
12800.000000	90.804	-117.4169
13150.000000	90.622	-108.2753
13200.000000	90.608	-106.9831
13400.000000	90.557	-102.0554
13600.000000	90.475	-97.3523
13800.000000	90.368	-92.5688
14000.000000	90.279	-87.6584
14300.000000	90.232	-80.5155
14500.000000	90.254	-76.0692
14750.000000	90.414	-70.7792
15000.000000	90.881	-66.5320
15250.000000	91.673	-65.3990
15500.000000	92.519	-69.9918
15750.000000	92.941	-81.7299
16000.000000	92.498	-98.2167
16250.000000	91.032	-113.7568
16500.000000	88.713	-124.2458
16750.000000	85.898	-129.8428
17000.000000	83.004	-133.2525
17250.000000	80.405	-137.0469
17500.000000	78.150	-140.8222
17750.000000	75.886	-139.8051
18000.000000	73.527	-130.3571
18250.000000	71.757	-115.6036
18500.000000	71.244	-100.2760
18750.000000	71.705	-85.9801
19000.000000	72.596	-72.5222
19250.000000	73.630	-59.7671
19500.000000	74.633	-48.2281
19750.000000	75.438	-39.0702
