* Measurement data measured by REW V5.20.13
* Source: Headset Microphone (Realtek(R) Audio), MICROPHONE (Hauptlautstärke), L, volume: 1,000
* Format: 256k Log Swept Sine, 1 sweep at -8,0 dBFS with no timing reference
* Dated: 20.08.2023 13:55:21
* REW Settings:
*  C-weighting compensation: Off
*  Target level: 75.0 dB
* Note: 
* Measurement: realme Air 5 deep
* Smoothing: 1/12 octave
* Frequency Step: 1/48 octave
* Start Frequency: 20.000 Hz
*
* Freq(Hz)	SPL(dB)	Phase(degrees)
20.000000	119.968	-132.9614
20.299999	120.044	-133.6130
20.600000	120.122	-134.2345
20.900000	120.203	-134.8429
21.200001	120.286	-135.4530
21.400000	120.342	-135.8643
21.799999	120.453	-136.6977
22.000000	120.508	-137.1188
22.400000	120.616	-137.9656
22.700001	120.696	-138.6013
23.000000	120.774	-139.2349
23.299999	120.850	-139.8653
23.600000	120.925	-140.4921
24.000000	121.023	-141.3210
24.299999	121.093	-141.9347
24.700001	121.183	-142.7356
25.000000	121.248	-143.3183
25.400000	121.333	-144.0713
25.799999	121.417	-144.8113
26.200001	121.501	-145.5620
26.500000	121.561	-146.1412
26.900000	121.635	-146.9308
27.200001	121.685	-147.5251
27.600000	121.747	-148.3082
28.000000	121.806	-149.0853
28.500000	121.877	-150.0776
29.000000	121.940	-151.0894
29.500000	121.997	-152.0460
30.000000	122.070	-152.9060
30.400000	122.156	-153.6118
30.700001	122.235	-154.2366
31.100000	122.343	-155.2800
31.500000	122.428	-156.5358
32.000000	122.479	-158.1424
32.500000	122.485	-159.3974
33.000000	122.516	-160.1645
33.500000	122.621	-160.7511
34.000000	122.779	-161.6276
34.500000	122.917	-162.9532
35.000000	122.986	-164.4618
35.500000	122.986	-165.7218
36.000000	122.964	-166.5213
36.500000	122.966	-166.9621
37.000000	123.008	-167.3028
37.500000	123.076	-167.7329
38.200001	123.181	-168.5916
38.700001	123.247	-169.3667
39.500000	123.326	-170.7996
40.000000	123.357	-171.7579
40.599998	123.383	-172.9162
41.200001	123.403	-174.0639
41.799999	123.423	-175.2120
42.500000	123.450	-176.5695
43.099998	123.474	-177.7518
43.700001	123.496	-178.9460
44.400002	123.517	179.6619
45.000000	123.528	178.4870
45.500000	123.534	177.5294
46.200001	123.535	176.2252
46.799999	123.531	175.1371
47.500000	123.521	173.8879
48.200001	123.506	172.6431
48.700001	123.491	171.7516
49.400002	123.463	170.5033
50.000000	123.434	169.4407
50.799999	123.388	168.0467
51.500000	123.344	166.8554
52.200001	123.297	165.6975
53.000000	123.242	164.4214
53.799999	123.189	163.1806
54.500000	123.141	162.1025
55.200001	123.087	161.0383
56.000000	123.020	159.8699
57.000000	122.933	158.4696
58.000000	122.842	157.0812
59.000000	122.742	155.7343
60.000000	122.639	154.4462
60.799999	122.557	153.4316
61.500000	122.482	152.5559
62.200001	122.404	151.7059
63.000000	122.312	150.7809
64.000000	122.194	149.7052
65.000000	122.077	148.7080
66.000000	121.964	147.7551
67.000000	121.852	146.8102
68.000000	121.736	145.8600
69.000000	121.614	144.9267
70.000000	121.489	144.0330
71.000000	121.363	143.1788
72.000000	121.240	142.3578
73.000000	121.120	141.5659
74.000000	121.000	140.8040
75.000000	120.880	140.0814
76.199997	120.737	139.2689
77.500000	120.584	138.4315
78.800003	120.432	137.6127
80.000000	120.292	136.8752
81.199997	120.151	136.1771
82.500000	120.002	135.4828
83.800003	119.855	134.8477
85.000000	119.723	134.2969
86.199997	119.591	133.7652
87.500000	119.448	133.2050
88.500000	119.339	132.7846
90.000000	119.181	132.1661
91.199997	119.055	131.6782
92.500000	118.913	131.1789
93.800003	118.763	130.7149
95.000000	118.621	130.2736
96.199997	118.473	129.7728
97.500000	118.304	129.1693
98.800003	118.132	128.6068
100.000000	117.988	128.2363
101.500000	117.856	127.9174
103.000000	117.762	127.5840
104.400002	117.672	127.2672
106.000000	117.548	126.9493
107.500000	117.415	126.6722
109.000000	117.273	126.3848
110.599998	117.122	126.0552
112.000000	116.993	125.7704
113.800003	116.832	125.4559
115.000000	116.727	125.2654
117.199997	116.535	124.8850
118.000000	116.465	124.7343
120.599998	116.243	124.2171
122.000000	116.127	123.9366
124.099998	115.953	123.5646
125.000000	115.878	123.4312
126.500000	115.753	123.2361
128.000000	115.630	123.0610
131.500000	115.353	122.6800
132.000000	115.314	122.6263
134.000000	115.151	122.4132
136.000000	114.983	122.2123
138.000000	114.816	122.0238
140.000000	114.656	121.8416
143.000000	114.423	121.5869
145.000000	114.265	121.4364
147.500000	114.056	121.2664
150.000000	113.837	121.1109
152.500000	113.623	120.9543
155.000000	113.419	120.7712
157.500000	113.217	120.5969
160.000000	113.007	120.5159
162.500000	112.797	120.5906
165.000000	112.588	120.9414
167.500000	112.380	121.6914
170.000000	112.179	122.6571
172.500000	111.992	123.5081
175.000000	111.841	124.0587
177.500000	111.733	124.3290
180.000000	111.656	124.4131
182.500000	111.584	124.3463
185.000000	111.489	124.2029
187.500000	111.365	124.0823
190.000000	111.221	123.9842
192.500000	111.068	123.8848
195.000000	110.918	123.8218
197.500000	110.777	123.8135
200.000000	110.635	123.8510
203.000000	110.448	123.9608
206.000000	110.246	124.1570
209.000000	110.039	124.4319
212.000000	109.839	124.7546
214.000000	109.710	124.9833
218.000000	109.452	125.4610
220.000000	109.318	125.7095
224.000000	109.050	126.2543
227.000000	108.862	126.7333
230.000000	108.686	127.2934
233.000000	108.511	127.9111
236.000000	108.332	128.5457
240.000000	108.092	129.4161
243.000000	107.913	130.1147
247.000000	107.675	131.0956
250.000000	107.507	131.8143
254.000000	107.300	132.7602
258.000000	107.113	133.7811
262.000000	106.925	134.8378
265.000000	106.777	135.5987
269.000000	106.587	136.5488
272.000000	106.465	137.2507
276.000000	106.321	138.3161
280.000000	106.180	139.6168
285.000000	106.007	141.3947
290.000000	105.855	143.1919
295.000000	105.724	144.9726
300.000000	105.610	146.5612
304.000000	105.522	147.7130
307.000000	105.454	148.5691
311.000000	105.361	149.7315
315.000000	105.266	150.9087
320.000000	105.159	152.3758
325.000000	105.074	153.8587
330.000000	105.011	155.3919
335.000000	104.965	156.8796
340.000000	104.932	158.2752
345.000000	104.906	159.6428
350.000000	104.878	160.9195
355.000000	104.839	162.0699
360.000000	104.797	163.1857
365.000000	104.765	164.3303
370.000000	104.749	165.4415
375.000000	104.740	166.4295
382.000000	104.726	167.6651
387.000000	104.715	168.5333
395.000000	104.697	169.9141
400.000000	104.687	170.7285
406.000000	104.673	171.6624
412.000000	104.650	172.5946
418.000000	104.626	173.5360
425.000000	104.609	174.5997
431.000000	104.599	175.4424
437.000000	104.584	176.2227
444.000000	104.558	177.0898
450.000000	104.531	177.8302
455.000000	104.507	178.4763
462.000000	104.469	179.4719
468.000000	104.430	-179.6198
475.000000	104.376	-178.6100
482.000000	104.326	-177.6946
487.000000	104.298	-177.0667
494.000000	104.263	-176.1901
500.000000	104.235	-175.4503
508.000000	104.200	-174.5373
515.000000	104.172	-173.8118
522.000000	104.147	-173.0204
530.000000	104.120	-171.8995
538.000000	104.084	-170.6773
545.000000	104.043	-169.6639
552.000000	103.996	-168.7253
560.000000	103.943	-167.7253
570.000000	103.883	-166.5198
580.000000	103.822	-165.3256
590.000000	103.758	-164.1547
600.000000	103.693	-162.9607
608.000000	103.642	-161.9561
615.000000	103.596	-161.0394
622.000000	103.545	-160.1011
630.000000	103.482	-159.0199
640.000000	103.401	-157.6897
650.000000	103.324	-156.4035
660.000000	103.249	-155.1465
670.000000	103.174	-153.8705
680.000000	103.102	-152.5344
690.000000	103.034	-151.1446
700.000000	102.968	-149.7250
710.000000	102.904	-148.2870
720.000000	102.839	-146.8219
730.000000	102.770	-145.3321
740.000000	102.699	-143.8365
750.000000	102.632	-142.3346
762.000000	102.562	-140.5098
775.000000	102.495	-138.5030
788.000000	102.432	-136.4668
800.000000	102.373	-134.5420
812.000000	102.317	-132.5746
825.000000	102.257	-130.4315
838.000000	102.203	-128.2835
850.000000	102.162	-126.3172
862.000000	102.130	-124.3691
875.000000	102.098	-122.2426
885.000000	102.077	-120.5731
900.000000	102.052	-118.0168
912.000000	102.041	-115.9372
925.000000	102.035	-113.6569
938.000000	102.035	-111.3753
950.000000	102.039	-109.3007
962.000000	102.053	-107.2681
975.000000	102.078	-105.0835
988.000000	102.113	-102.8923
1000.000000	102.154	-100.8761
1015.000000	102.215	-98.3844
1030.000000	102.283	-95.9272
1044.000000	102.352	-93.6563
1060.000000	102.440	-91.0962
1075.000000	102.529	-88.7673
1090.000000	102.619	-86.5250
1106.000000	102.715	-84.2243
1120.000000	102.801	-82.2696
1138.000000	102.918	-79.8149
1150.000000	102.999	-78.2174
1172.000000	103.147	-75.3688
1180.000000	103.200	-74.3562
1206.000000	103.367	-71.1396
1220.000000	103.454	-69.4444
1241.000000	103.582	-66.9342
1250.000000	103.635	-65.8678
1265.000000	103.720	-64.1019
1280.000000	103.802	-62.3514
1315.000000	103.989	-58.3307
1320.000000	104.015	-57.7632
1340.000000	104.117	-55.5082
1360.000000	104.215	-53.2734
1380.000000	104.310	-51.0527
1400.000000	104.405	-48.8350
1430.000000	104.543	-45.4944
1450.000000	104.631	-43.2550
1475.000000	104.738	-40.4607
1500.000000	104.844	-37.6739
1525.000000	104.949	-34.8822
1550.000000	105.057	-32.0731
1575.000000	105.167	-29.2320
1600.000000	105.282	-26.3568
1625.000000	105.401	-23.4459
1650.000000	105.532	-20.5001
1675.000000	105.682	-17.5622
1700.000000	105.858	-14.7400
1725.000000	106.050	-12.1877
1750.000000	106.239	-10.0376
1775.000000	106.410	-8.3160
1800.000000	106.563	-6.9330
1825.000000	106.708	-5.7434
1850.000000	106.850	-4.6335
1875.000000	106.990	-3.5520
1900.000000	107.131	-2.4845
1925.000000	107.270	-1.4365
1950.000000	107.410	-0.4218
1975.000000	107.549	0.5478
2000.000000	107.689	1.4656
2030.000000	107.854	2.4971
2060.000000	108.017	3.4550
2090.000000	108.177	4.3410
2120.000000	108.332	5.1596
2140.000000	108.432	5.6711
2180.000000	108.625	6.6188
2200.000000	108.718	7.0551
2240.000000	108.898	7.8446
2270.000000	109.020	8.3649
2300.000000	109.128	8.8433
2330.000000	109.220	9.3172
2360.000000	109.298	9.8361
2400.000000	109.390	10.6899
2430.000000	109.463	11.4990
2470.000000	109.600	12.7707
2500.000000	109.750	13.7463
2540.000000	110.017	14.7744
2580.000000	110.323	15.1638
2620.000000	110.600	14.8112
2650.000000	110.757	14.1795
2690.000000	110.887	13.1180
2720.000000	110.930	12.3175
2760.000000	110.933	11.3832
2800.000000	110.892	10.6550
2850.000000	110.806	10.0198
2900.000000	110.695	9.6289
2950.000000	110.564	9.4350
3000.000000	110.417	9.4224
3040.000000	110.292	9.5436
3070.000000	110.196	9.7106
3110.000000	110.065	10.0291
3150.000000	109.934	10.4424
3200.000000	109.771	11.0688
3250.000000	109.609	11.8069
3300.000000	109.452	12.6534
3350.000000	109.300	13.5949
3400.000000	109.153	14.6108
3450.000000	109.012	15.6843
3500.000000	108.875	16.8072
3550.000000	108.743	17.9795
3600.000000	108.616	19.2087
3650.000000	108.492	20.5078
3700.000000	108.372	21.8846
3750.000000	108.259	23.3412
3820.000000	108.119	25.5140
3870.000000	108.034	27.1493
3950.000000	107.934	29.8537
4000.000000	107.896	31.5673
4060.000000	107.874	33.6265
4120.000000	107.877	35.6759
4180.000000	107.905	37.6998
4250.000000	107.968	40.0033
4310.000000	108.046	41.9045
4370.000000	108.146	43.7215
4440.000000	108.289	45.7231
4500.000000	108.436	47.3258
4550.000000	108.574	48.5686
4620.000000	108.791	50.1400
4680.000000	108.996	51.3031
4750.000000	109.255	52.4173
4820.000000	109.530	53.2498
4870.000000	109.733	53.6647
4940.000000	110.022	53.9854
5000.000000	110.271	54.0078
5080.000000	110.596	53.6560
5150.000000	110.865	52.9757
5220.000000	111.110	51.9441
5300.000000	111.343	50.3828
5380.000000	111.521	48.5469
5450.000000	111.641	46.7805
5520.000000	111.730	44.7673
5600.000000	111.759	42.1168
5700.000000	111.648	38.6443
5800.000000	111.383	35.5044
5900.000000	111.000	33.0584
6000.000000	110.555	31.4568
6080.000000	110.195	30.6756
6150.000000	109.880	30.2618
6220.000000	109.565	30.1049
6300.000000	109.209	30.2687
6400.000000	108.792	30.9627
6500.000000	108.427	32.1022
6600.000000	108.127	33.5655
6700.000000	107.897	35.2311
6800.000000	107.740	36.9866
6900.000000	107.655	38.7493
7000.000000	107.636	40.4689
7100.000000	107.679	42.1188
7200.000000	107.787	43.6875
7300.000000	107.969	45.1619
7400.000000	108.241	46.5003
7500.000000	108.625	47.5918
7620.000000	109.250	48.2753
7750.000000	110.115	47.6724
7880.000000	111.097	44.9482
8000.000000	111.992	39.9313
8120.000000	112.729	32.1109
8250.000000	113.165	20.6743
8380.000000	113.072	7.5542
8500.000000	112.474	-4.0242
8620.000000	111.452	-13.4222
8750.000000	110.027	-20.3724
8850.000000	108.825	-23.5794
9000.000000	107.030	-25.7298
9120.000000	105.700	-25.8730
9250.000000	104.419	-25.0676
9380.000000	103.315	-23.6968
9500.000000	102.442	-22.2060
9620.000000	101.690	-20.6988
9750.000000	100.982	-19.2222
9880.000000	100.347	-18.0147
10000.000000	99.788	-17.1275
10150.000000	99.067	-16.1046
10300.000000	98.278	-14.6790
10440.000000	97.482	-12.4336
10600.000000	96.586	-8.3835
10750.000000	95.885	-3.3023
10900.000000	95.435	2.4214
11060.000000	95.269	8.4980
11200.000000	95.354	13.3643
11380.000000	95.698	18.6961
11500.000000	96.036	21.6149
11720.000000	96.828	25.6500
11800.000000	97.163	26.6965
12060.000000	98.409	28.4325
12200.000000	99.164	28.1747
12410.000000	100.348	25.8533
12500.000000	100.850	24.0303
12650.000000	101.632	19.7721
12800.000000	102.293	13.9900
13150.000000	103.085	-3.8699
13200.000000	103.098	-6.6364
13400.000000	102.909	-17.3176
13600.000000	102.404	-26.5413
13800.000000	101.707	-33.7532
14000.000000	100.953	-39.0036
14300.000000	99.963	-44.0893
14500.000000	99.515	-46.3457
14750.000000	99.285	-48.7228
15000.000000	99.480	-51.5079
15250.000000	100.092	-55.8925
15500.000000	100.979	-63.4002
15750.000000	101.845	-75.5759
16000.000000	102.316	-92.7889
16250.000000	102.108	-113.0010
16500.000000	101.142	-132.5354
16750.000000	99.536	-148.5139
17000.000000	97.495	-159.9801
17250.000000	95.218	-167.0031
17500.000000	92.865	-169.5499
17750.000000	90.584	-167.1353
18000.000000	88.551	-159.3751
18250.000000	86.972	-147.1453
18500.000000	85.979	-132.6381
18750.000000	85.539	-118.0401
19000.000000	85.482	-104.7884
19250.000000	85.619	-93.6689
19500.000000	85.803	-85.0906
19750.000000	85.946	-79.2647
