* Measurement data measured by REW V5.20.13
* Source: Headset Microphone (Realtek(R) Audio), MICROPHONE (Hauptlautstärke), L, volume: 1,000
* Format: 256k Log Swept Sine, 1 sweep at -8,0 dBFS with no timing reference
* Dated: 22.08.2023 14:52:56
* REW Settings:
*  C-weighting compensation: Off
*  Target level: 75.0 dB
* Note: 
* Measurement: Tangzu Fudu R
* Smoothing: 1/12 octave
* Frequency Step: 1/48 octave
* Start Frequency: 20.000 Hz
*
* Freq(Hz)	SPL(dB)	Phase(degrees)
20.000000	120.982	23.4680
20.299999	121.003	22.8046
20.600000	121.032	22.1445
20.900000	121.067	21.4570
21.200001	121.102	20.7172
21.400000	121.122	20.1947
21.799999	121.149	19.1090
22.000000	121.154	18.5670
22.400000	121.145	17.5380
22.700001	121.127	16.8489
23.000000	121.103	16.2505
23.299999	121.078	15.7421
23.600000	121.058	15.3115
24.000000	121.043	14.8199
24.299999	121.045	14.4657
24.700001	121.063	13.9385
25.000000	121.082	13.4558
25.400000	121.101	12.6743
25.799999	121.098	11.7920
26.200001	121.066	10.9414
26.500000	121.030	10.4081
26.900000	120.981	9.8848
27.200001	120.958	9.6055
27.600000	120.956	9.2792
28.000000	120.982	8.8582
28.500000	121.026	8.0760
29.000000	121.045	7.0942
29.500000	121.027	6.1268
30.000000	120.990	5.3274
30.400000	120.959	4.8080
30.700001	120.939	4.4614
31.100000	120.916	4.0261
31.500000	120.894	3.6118
32.000000	120.866	3.1279
32.500000	120.842	2.6772
33.000000	120.823	2.2267
33.500000	120.806	1.7460
34.000000	120.789	1.2303
34.500000	120.770	0.6921
35.000000	120.751	0.1373
35.500000	120.732	-0.4340
36.000000	120.712	-1.0160
36.500000	120.692	-1.5973
37.000000	120.672	-2.1691
37.500000	120.652	-2.7259
38.200001	120.623	-3.4539
38.700001	120.603	-3.9209
39.500000	120.576	-4.6054
40.000000	120.558	-5.0095
40.599998	120.530	-5.4321
41.200001	120.505	-5.7514
41.799999	120.495	-6.0450
42.500000	120.496	-6.5381
43.099998	120.483	-7.1213
43.700001	120.445	-7.7336
44.400002	120.384	-8.3739
45.000000	120.332	-8.8856
45.500000	120.290	-9.3284
46.200001	120.223	-9.9664
46.799999	120.157	-10.4725
47.500000	120.081	-10.9634
48.200001	120.016	-11.3788
48.700001	119.976	-11.6689
49.400002	119.922	-12.0815
50.000000	119.874	-12.4092
50.799999	119.809	-12.7705
51.500000	119.756	-13.0264
52.200001	119.704	-13.2129
53.000000	119.657	-13.2815
53.799999	119.653	-13.2501
54.500000	119.695	-13.3698
55.200001	119.755	-13.8583
56.000000	119.782	-14.8427
57.000000	119.709	-16.0754
58.000000	119.595	-16.7686
59.000000	119.521	-17.2198
60.000000	119.466	-17.8542
60.799999	119.398	-18.4506
61.500000	119.317	-18.8708
62.200001	119.237	-19.1246
63.000000	119.170	-19.3182
64.000000	119.114	-19.6545
65.000000	119.057	-20.0662
66.000000	119.000	-20.4054
67.000000	118.954	-20.7051
68.000000	118.907	-21.0123
69.000000	118.851	-21.3008
70.000000	118.787	-21.5447
71.000000	118.718	-21.7733
72.000000	118.646	-22.0229
73.000000	118.572	-22.2875
74.000000	118.504	-22.5848
75.000000	118.443	-22.9463
76.199997	118.374	-23.4170
77.500000	118.307	-23.8840
78.800003	118.248	-24.2835
80.000000	118.198	-24.5847
81.199997	118.147	-24.8698
82.500000	118.081	-25.1904
83.800003	118.003	-25.5033
85.000000	117.925	-25.7755
86.199997	117.846	-26.0165
87.500000	117.767	-26.2332
88.500000	117.712	-26.3698
90.000000	117.638	-26.5692
91.199997	117.579	-26.7585
92.500000	117.509	-26.9851
93.800003	117.436	-27.2257
95.000000	117.374	-27.4908
96.199997	117.315	-27.8137
97.500000	117.252	-28.1927
98.800003	117.186	-28.5265
100.000000	117.124	-28.7280
101.500000	117.052	-28.8370
103.000000	116.982	-28.8863
104.400002	116.912	-28.9348
106.000000	116.828	-29.0208
107.500000	116.753	-29.1622
109.000000	116.687	-29.3745
110.599998	116.623	-29.6648
112.000000	116.565	-29.9264
113.800003	116.480	-30.1716
115.000000	116.420	-30.2431
117.199997	116.314	-30.2593
118.000000	116.277	-30.2585
120.599998	116.161	-30.2917
122.000000	116.107	-30.3553
124.099998	116.041	-30.5969
125.000000	116.012	-30.7572
126.500000	115.956	-31.0473
128.000000	115.880	-31.2897
131.500000	115.642	-31.3948
132.000000	115.607	-31.3650
134.000000	115.483	-31.2137
136.000000	115.396	-31.0792
138.000000	115.340	-31.0165
140.000000	115.288	-31.0173
143.000000	115.184	-31.0447
145.000000	115.106	-31.0682
147.500000	115.012	-31.0807
150.000000	114.915	-31.0591
152.500000	114.796	-31.0310
155.000000	114.667	-31.0367
157.500000	114.560	-31.0411
160.000000	114.490	-30.9641
162.500000	114.436	-30.7877
165.000000	114.382	-30.6160
167.500000	114.320	-30.5468
170.000000	114.252	-30.5532
172.500000	114.174	-30.5543
175.000000	114.089	-30.5060
177.500000	114.009	-30.4279
180.000000	113.941	-30.3418
182.500000	113.877	-30.2531
185.000000	113.806	-30.1641
187.500000	113.725	-30.0756
190.000000	113.641	-29.9808
192.500000	113.561	-29.8773
195.000000	113.485	-29.7762
197.500000	113.413	-29.6952
200.000000	113.343	-29.6279
203.000000	113.268	-29.5211
206.000000	113.195	-29.3491
209.000000	113.121	-29.1218
212.000000	113.047	-28.8864
214.000000	112.998	-28.7430
218.000000	112.903	-28.4901
220.000000	112.857	-28.3690
224.000000	112.767	-28.1156
227.000000	112.700	-27.9316
230.000000	112.632	-27.7605
233.000000	112.566	-27.5831
236.000000	112.503	-27.3873
240.000000	112.422	-27.1159
243.000000	112.364	-26.9225
247.000000	112.289	-26.6836
250.000000	112.231	-26.5063
254.000000	112.149	-26.2653
258.000000	112.069	-26.0057
262.000000	111.997	-25.6962
265.000000	111.947	-25.4280
269.000000	111.881	-25.0654
272.000000	111.831	-24.8215
276.000000	111.764	-24.5401
280.000000	111.697	-24.2740
285.000000	111.607	-23.8987
290.000000	111.515	-23.4651
295.000000	111.428	-22.9906
300.000000	111.350	-22.5447
304.000000	111.298	-22.2787
307.000000	111.263	-22.1135
311.000000	111.216	-21.8876
315.000000	111.164	-21.6316
320.000000	111.097	-21.2666
325.000000	111.030	-20.8738
330.000000	110.966	-20.4856
335.000000	110.902	-20.1021
340.000000	110.837	-19.6871
345.000000	110.773	-19.2427
350.000000	110.717	-18.8083
355.000000	110.669	-18.4038
360.000000	110.625	-18.0137
365.000000	110.579	-17.6108
370.000000	110.533	-17.1782
375.000000	110.487	-16.7133
382.000000	110.428	-16.0518
387.000000	110.386	-15.6261
395.000000	110.319	-15.0679
400.000000	110.283	-14.7559
406.000000	110.245	-14.3566
412.000000	110.210	-13.9153
418.000000	110.169	-13.4625
425.000000	110.116	-12.9536
431.000000	110.072	-12.5304
437.000000	110.030	-12.0944
444.000000	109.985	-11.5536
450.000000	109.948	-11.0815
455.000000	109.918	-10.7032
462.000000	109.878	-10.1942
468.000000	109.846	-9.7585
475.000000	109.809	-9.2386
482.000000	109.772	-8.7067
487.000000	109.745	-8.3239
494.000000	109.709	-7.7988
500.000000	109.681	-7.3649
508.000000	109.647	-6.7908
515.000000	109.618	-6.2837
522.000000	109.591	-5.7711
530.000000	109.562	-5.1786
538.000000	109.537	-4.5892
545.000000	109.519	-4.0815
552.000000	109.501	-3.5795
560.000000	109.482	-3.0100
570.000000	109.456	-2.3051
580.000000	109.431	-1.5948
590.000000	109.410	-0.8800
600.000000	109.393	-0.1759
608.000000	109.381	0.3828
615.000000	109.372	0.8722
622.000000	109.364	1.3664
630.000000	109.355	1.9418
640.000000	109.346	2.6615
650.000000	109.338	3.3556
660.000000	109.333	4.0294
670.000000	109.329	4.7039
680.000000	109.331	5.3925
690.000000	109.338	6.0967
700.000000	109.348	6.8037
710.000000	109.358	7.4852
720.000000	109.368	8.1461
730.000000	109.380	8.8264
740.000000	109.392	9.5297
750.000000	109.407	10.2321
762.000000	109.429	11.0577
775.000000	109.458	11.9240
788.000000	109.492	12.7756
800.000000	109.525	13.5714
812.000000	109.561	14.3658
825.000000	109.603	15.2115
838.000000	109.651	16.0487
850.000000	109.698	16.8196
862.000000	109.748	17.5833
875.000000	109.805	18.3941
885.000000	109.851	19.0097
900.000000	109.924	19.9261
912.000000	109.988	20.6506
925.000000	110.061	21.4285
938.000000	110.140	22.2029
950.000000	110.218	22.9146
962.000000	110.301	23.6199
975.000000	110.396	24.3649
988.000000	110.499	25.0753
1000.000000	110.599	25.6923
1015.000000	110.732	26.4061
1030.000000	110.870	27.0530
1044.000000	111.002	27.5929
1060.000000	111.153	28.1396
1075.000000	111.294	28.5951
1090.000000	111.434	29.0035
1106.000000	111.582	29.3926
1120.000000	111.709	29.7012
1138.000000	111.873	30.0560
1150.000000	111.981	30.2613
1172.000000	112.176	30.5699
1180.000000	112.247	30.6625
1206.000000	112.474	30.8971
1220.000000	112.594	30.9839
1241.000000	112.771	31.0653
1250.000000	112.844	31.0826
1265.000000	112.965	31.0892
1280.000000	113.083	31.0713
1315.000000	113.351	30.9613
1320.000000	113.388	30.9390
1340.000000	113.534	30.8316
1360.000000	113.675	30.6938
1380.000000	113.812	30.5282
1400.000000	113.946	30.3386
1430.000000	114.140	30.0196
1450.000000	114.265	29.7885
1475.000000	114.416	29.4771
1500.000000	114.562	29.1425
1525.000000	114.705	28.7956
1550.000000	114.847	28.4333
1575.000000	114.989	28.0336
1600.000000	115.130	27.5709
1625.000000	115.268	27.0319
1650.000000	115.397	26.4232
1675.000000	115.516	25.7623
1700.000000	115.622	25.0691
1725.000000	115.717	24.3620
1750.000000	115.802	23.6516
1775.000000	115.878	22.9418
1800.000000	115.945	22.2328
1825.000000	116.005	21.5244
1850.000000	116.056	20.8174
1875.000000	116.100	20.1146
1900.000000	116.137	19.4191
1925.000000	116.165	18.7356
1950.000000	116.186	18.0687
1975.000000	116.200	17.4214
2000.000000	116.207	16.7962
2030.000000	116.207	16.0791
2060.000000	116.200	15.4018
2090.000000	116.184	14.7667
2120.000000	116.161	14.1761
2140.000000	116.143	13.8082
2180.000000	116.097	13.1371
2200.000000	116.070	12.8355
2240.000000	116.011	12.3064
2270.000000	115.961	11.9795
2300.000000	115.908	11.7154
2330.000000	115.853	11.5153
2360.000000	115.797	11.3812
2400.000000	115.723	11.3080
2430.000000	115.671	11.3292
2470.000000	115.608	11.4447
2500.000000	115.568	11.5798
2540.000000	115.523	11.7967
2580.000000	115.485	12.0366
2620.000000	115.448	12.3085
2650.000000	115.421	12.5524
2690.000000	115.386	12.9594
2720.000000	115.363	13.3390
2760.000000	115.342	13.9514
2800.000000	115.342	14.6743
2850.000000	115.382	15.6678
2900.000000	115.473	16.6224
2950.000000	115.603	17.3836
3000.000000	115.750	17.8884
3040.000000	115.865	18.1454
3070.000000	115.948	18.2918
3110.000000	116.054	18.4694
3150.000000	116.161	18.6541
3200.000000	116.308	18.8945
3250.000000	116.478	19.0951
3300.000000	116.670	19.1735
3350.000000	116.878	19.0623
3400.000000	117.092	18.7336
3450.000000	117.305	18.1967
3500.000000	117.511	17.4767
3550.000000	117.709	16.5958
3600.000000	117.899	15.5681
3650.000000	118.080	14.3970
3700.000000	118.254	13.0717
3750.000000	118.418	11.5707
3820.000000	118.622	9.1327
3870.000000	118.740	7.1378
3950.000000	118.857	3.5555
4000.000000	118.876	1.1350
4060.000000	118.835	-1.8649
4120.000000	118.718	-4.8554
4180.000000	118.526	-7.6989
4250.000000	118.215	-10.6509
4310.000000	117.887	-12.7352
4370.000000	117.520	-14.3123
4440.000000	117.073	-15.4459
4500.000000	116.705	-15.8252
4550.000000	116.431	-15.7899
4620.000000	116.127	-15.4047
4680.000000	115.952	-15.0165
4750.000000	115.836	-14.8383
4820.000000	115.767	-15.2075
4870.000000	115.714	-15.8361
4940.000000	115.590	-17.0955
5000.000000	115.417	-18.3204
5080.000000	115.087	-19.7977
5150.000000	114.722	-20.6841
5220.000000	114.315	-21.0533
5300.000000	113.833	-20.7989
5380.000000	113.373	-19.8792
5450.000000	113.016	-18.6689
5520.000000	112.711	-17.2593
5600.000000	112.413	-15.5527
5700.000000	112.087	-13.2808
5800.000000	111.802	-10.7474
5900.000000	111.566	-7.9180
6000.000000	111.388	-4.8279
6080.000000	111.291	-2.1964
6150.000000	111.242	0.2074
6220.000000	111.226	2.6947
6300.000000	111.251	5.6272
6400.000000	111.353	9.4039
6500.000000	111.543	13.2697
6600.000000	111.835	17.1755
6700.000000	112.246	21.0380
6800.000000	112.790	24.7197
6900.000000	113.479	28.0227
7000.000000	114.304	30.6934
7100.000000	115.243	32.4468
7200.000000	116.254	33.0172
7300.000000	117.288	32.2007
7400.000000	118.297	29.8579
7500.000000	119.229	25.8845
7620.000000	120.166	18.8745
7750.000000	120.832	8.6985
7880.000000	121.011	-3.2142
8000.000000	120.693	-14.2060
8120.000000	119.948	-23.6617
8250.000000	118.783	-31.1368
8380.000000	117.411	-35.5809
8500.000000	116.094	-37.3975
8620.000000	114.822	-37.5506
8750.000000	113.553	-36.3738
8850.000000	112.674	-34.7917
9000.000000	111.516	-31.6546
9120.000000	110.725	-28.6813
9250.000000	109.995	-25.1466
9380.000000	109.391	-21.4019
9500.000000	108.941	-17.8478
9620.000000	108.591	-14.2748
9750.000000	108.319	-10.4578
9880.000000	108.154	-6.7672
10000.000000	108.093	-3.5417
10150.000000	108.131	0.1248
10300.000000	108.279	3.2468
10440.000000	108.493	5.5791
10600.000000	108.798	7.4897
10750.000000	109.116	8.4946
10900.000000	109.435	8.7000
11060.000000	109.738	8.0481
11200.000000	109.942	6.8220
11380.000000	110.083	4.5967
11500.000000	110.090	2.9060
11720.000000	109.934	-0.1190
11800.000000	109.831	-1.0939
12060.000000	109.398	-3.6136
12200.000000	109.138	-4.6412
12410.000000	108.750	-6.0977
12500.000000	108.585	-6.8002
12650.000000	108.298	-8.1925
12800.000000	107.977	-9.9244
13150.000000	106.944	-15.0305
13200.000000	106.751	-15.7922
13400.000000	105.849	-18.5474
13600.000000	104.743	-20.3875
13800.000000	103.473	-20.8834
14000.000000	102.099	-19.8631
14300.000000	99.991	-15.6008
14500.000000	98.642	-11.1441
14750.000000	97.104	-4.0244
15000.000000	95.829	4.4247
15250.000000	94.924	13.5112
15500.000000	94.426	22.3871
15750.000000	94.268	30.5984
16000.000000	94.409	38.2759
16250.000000	94.936	45.3298
16500.000000	95.876	50.5965
16750.000000	97.008	52.2842
17000.000000	97.987	49.2687
17250.000000	98.527	41.9341
17500.000000	98.462	32.2907
17750.000000	97.785	23.0305
18000.000000	96.616	15.9205
18250.000000	95.119	11.2774
18500.000000	93.403	8.8633
18750.000000	91.507	8.7798
19000.000000	89.451	11.5189
19250.000000	87.302	17.3196
19500.000000	85.271	25.0189
19750.000000	83.708	31.9380
