* Measurement data measured by REW V5.20
* Source: Microphone (Realtek USB2.0 Audio), MICROPHONE (Master Volume), L, volume: 0.250. Timing signal peak level -37.0 dBFS, measurement signal peak level -33.4 dBFS
* Format: 4M Log Swept Sine, 1 sweep at -10.0 dBFS using an acoustic timing reference
* Dated: May 15, 2021 9:21:28 AM
* REW Settings:
*  C-weighting compensation: Off
*  Target level: 75.0 dB
* Note: Delay -0.0622 ms (-21 mm, -0.84 in) using estimated IR delay relative to Acoustic reference on  L with no timing offset
* Measurement: Tin T5 (Foam) L
* Smoothing: 1/24 octave
* Frequency Step: 1/48 octave
* Start Frequency: 20.000 Hz
*
* Freq(Hz)	SPL(dB)	Phase(degrees)
20.000000	76.774918	-68.0696
20.299999	76.936264	-69.4389
20.600000	77.084373	-70.7730
20.900000	77.219971	-72.0565
21.200001	77.343132	-73.2771
21.400000	77.418312	-74.0522
21.799999	77.552109	-75.5269
22.000000	77.611382	-76.2436
22.400000	77.719795	-77.6885
22.700001	77.797745	-78.8285
23.000000	77.871933	-80.0302
23.299999	77.935524	-81.2715
23.600000	77.981293	-82.4990
24.000000	78.015778	-83.9943
24.299999	78.034622	-84.9472
24.700001	78.074280	-85.9924
25.000000	78.127541	-86.6911
25.400000	78.233017	-87.6838
25.799999	78.356430	-88.9182
26.200001	78.458694	-90.4158
26.500000	78.502731	-91.6133
26.900000	78.516846	-93.0860
27.200001	78.508125	-93.9649
27.600000	78.509247	-94.7694
28.000000	78.562500	-95.2805
28.500000	78.717949	-95.9460
29.000000	78.905205	-97.0804
29.500000	79.038887	-98.6785
30.000000	79.095078	-100.3502
30.400000	79.107216	-101.5205
30.700001	79.113983	-102.2780
31.100000	79.133286	-103.1862
31.500000	79.164978	-104.0587
32.000000	79.206360	-105.1296
32.500000	79.240021	-106.1137
33.000000	79.279243	-106.9959
33.500000	79.336197	-107.8774
34.000000	79.401451	-108.8338
34.500000	79.463654	-109.8082
35.000000	79.532814	-110.7376
35.500000	79.622574	-111.7151
36.000000	79.715736	-112.8957
36.500000	79.772385	-114.2295
37.000000	79.778542	-115.4060
37.500000	79.772934	-116.1702
38.200001	79.842590	-116.8780
38.700001	79.936409	-117.6594
39.500000	79.999161	-119.4824
40.000000	79.960327	-120.3844
40.599998	79.923958	-120.9038
41.200001	79.962898	-121.3030
41.799999	80.028450	-122.0879
42.500000	80.044868	-123.2289
43.099998	80.037041	-123.8831
43.700001	80.084068	-124.3438
44.400002	80.194771	-125.3051
45.000000	80.250038	-126.5816
45.500000	80.238846	-127.6219
46.200001	80.184456	-128.5847
46.799999	80.171989	-129.0116
47.500000	80.217621	-129.5449
48.200001	80.268196	-130.4236
48.700001	80.274582	-131.1686
49.400002	80.242851	-132.0651
50.000000	80.213249	-132.5894
50.799999	80.216568	-133.2152
51.500000	80.234779	-133.9973
52.200001	80.222229	-134.8698
53.000000	80.190086	-135.6134
53.799999	80.204269	-136.1885
54.500000	80.262688	-136.8411
55.200001	80.331825	-137.7145
56.000000	80.378479	-138.8670
57.000000	80.362167	-140.0342
58.000000	80.336639	-140.5843
59.000000	80.355072	-140.9930
60.000000	80.390991	-141.6230
60.799999	80.401947	-142.3829
61.500000	80.382301	-143.1103
62.200001	80.352875	-143.7864
63.000000	80.325951	-144.5828
64.000000	80.290642	-145.6019
65.000000	80.279144	-146.4595
66.000000	80.307983	-147.3418
67.000000	80.335289	-148.3562
68.000000	80.312553	-149.2741
69.000000	80.256927	-149.6575
70.000000	80.240936	-149.6596
71.000000	80.268295	-149.8430
72.000000	80.279678	-150.5258
73.000000	80.213715	-151.3842
74.000000	80.127060	-151.9123
75.000000	80.088989	-152.3702
76.199997	80.074173	-152.8982
77.500000	80.149292	-153.3875
78.800003	80.218834	-154.4241
80.000000	80.207550	-155.1044
81.199997	80.200829	-155.6568
82.500000	80.161201	-156.4340
83.800003	80.114365	-157.3686
85.000000	80.053482	-158.3671
86.199997	79.990433	-159.0758
87.500000	79.960350	-159.5686
88.500000	79.953270	-159.7826
90.000000	79.986305	-160.1028
91.199997	79.990814	-160.5578
92.500000	79.984528	-161.0703
93.800003	79.964203	-161.7982
95.000000	79.920479	-162.4707
96.199997	79.876007	-162.9663
97.500000	79.856888	-163.4025
98.800003	79.837616	-163.9298
100.000000	79.806870	-164.3908
101.500000	79.778786	-164.9470
103.000000	79.763657	-165.6348
104.400002	79.738693	-166.1182
106.000000	79.759125	-166.4255
107.500000	79.784515	-166.8579
109.000000	79.783363	-167.3219
110.599998	79.760826	-168.0109
112.000000	79.697296	-168.5523
113.800003	79.656525	-168.8446
115.000000	79.650063	-169.0620
117.199997	79.613144	-169.2881
118.000000	79.599869	-169.3631
120.599998	79.567627	-170.0067
122.000000	79.551857	-170.5731
124.099998	79.527931	-171.3768
125.000000	79.513245	-171.6589
126.500000	79.479446	-172.0688
128.000000	79.436554	-172.4749
131.500000	79.401970	-173.4527
132.000000	79.411743	-173.5424
134.000000	79.495560	-173.6717
136.000000	79.587555	-173.9690
138.000000	79.513123	-174.6791
140.000000	79.350883	-175.1857
143.000000	79.226135	-176.1767
145.000000	79.190491	-176.7317
147.500000	79.153633	-176.9099
150.000000	79.128250	-176.9928
152.500000	79.090019	-177.5387
155.000000	79.043236	-178.2217
157.500000	78.995728	-178.8979
160.000000	78.920029	-179.2701
162.500000	78.860580	-179.3266
165.000000	78.827965	-179.6921
167.500000	78.777916	179.6948
170.000000	78.734505	179.2915
172.500000	78.697998	178.9381
175.000000	78.626686	178.5461
177.500000	78.576324	178.2135
180.000000	78.573090	177.7291
182.500000	78.572182	177.2499
185.000000	78.558411	176.8864
187.500000	78.519073	176.6040
190.000000	78.457825	176.3308
192.500000	78.394669	176.0999
195.000000	78.356194	175.8568
197.500000	78.315277	175.5378
200.000000	78.246384	175.2639
203.000000	78.168549	175.0262
206.000000	78.129265	174.7659
209.000000	78.097404	174.4724
212.000000	78.048164	174.2256
214.000000	78.012558	174.0671
218.000000	77.947731	173.6594
220.000000	77.919655	173.3975
224.000000	77.860138	172.8134
227.000000	77.804710	172.4771
230.000000	77.754974	172.2249
233.000000	77.710220	171.9322
236.000000	77.668610	171.6541
240.000000	77.621872	171.4284
243.000000	77.578316	171.3098
247.000000	77.510330	171.1460
250.000000	77.481888	171.0164
254.000000	77.449738	170.7751
258.000000	77.388893	170.5617
262.000000	77.321793	170.4897
265.000000	77.281662	170.4464
269.000000	77.224953	170.3487
272.000000	77.181366	170.2580
276.000000	77.122528	170.0964
280.000000	77.056358	170.0005
285.000000	76.973763	169.9722
290.000000	76.896164	169.8318
295.000000	76.827469	169.7202
300.000000	76.765312	169.9072
304.000000	76.715141	170.0290
307.000000	76.675941	170.0283
311.000000	76.615997	169.9350
315.000000	76.556717	169.8591
320.000000	76.492935	169.8722
325.000000	76.438049	169.9268
330.000000	76.379166	170.0492
335.000000	76.317841	170.0970
340.000000	76.253662	170.1114
345.000000	76.195633	170.1874
350.000000	76.136292	170.3143
355.000000	76.068008	170.4606
360.000000	76.002968	170.5646
365.000000	75.946404	170.6882
370.000000	75.893364	170.8514
375.000000	75.828781	170.9883
382.000000	75.726044	171.1921
387.000000	75.659142	171.2479
395.000000	75.571068	171.1727
400.000000	75.518982	171.0762
406.000000	75.449577	170.9330
412.000000	75.373169	170.8482
418.000000	75.310532	170.7815
425.000000	75.236824	170.6651
431.000000	75.172462	170.5321
437.000000	75.109924	170.4326
444.000000	75.045059	170.3342
450.000000	74.989296	170.3208
455.000000	74.934425	170.3572
462.000000	74.856552	170.4432
468.000000	74.793564	170.6192
475.000000	74.720940	171.0087
482.000000	74.643494	171.4926
487.000000	74.587982	171.8652
494.000000	74.515030	172.3792
500.000000	74.456604	172.8602
508.000000	74.380432	173.5732
515.000000	74.313370	174.2153
522.000000	74.248886	174.8663
530.000000	74.180351	175.6547
538.000000	74.111725	176.4828
545.000000	74.049271	177.2316
552.000000	73.988182	178.0024
560.000000	73.926483	178.9061
570.000000	73.850967	-179.8723
580.000000	73.776245	-178.6422
590.000000	73.723572	-177.4328
600.000000	73.683090	-176.3290
608.000000	73.655251	-175.6002
615.000000	73.637245	-175.0457
622.000000	73.624039	-174.5122
630.000000	73.614311	-173.8664
640.000000	73.614235	-173.0153
650.000000	73.631012	-172.2194
660.000000	73.667358	-171.5600
670.000000	73.721703	-170.8990
680.000000	73.782814	-170.1163
690.000000	73.843842	-169.2382
700.000000	73.902283	-168.5457
710.000000	73.955894	-168.1353
720.000000	74.002106	-167.8566
730.000000	74.042984	-167.6262
740.000000	74.078369	-167.4617
750.000000	74.107643	-167.3342
762.000000	74.135948	-167.1793
775.000000	74.160828	-166.9773
788.000000	74.187111	-166.7409
800.000000	74.209999	-166.5115
812.000000	74.234444	-166.2646
825.000000	74.268051	-165.9770
838.000000	74.303436	-165.6721
850.000000	74.334846	-165.4089
862.000000	74.371216	-165.1701
875.000000	74.420883	-164.9217
885.000000	74.465759	-164.7344
900.000000	74.547440	-164.4805
912.000000	74.632332	-164.3368
925.000000	74.747925	-164.3487
938.000000	74.889427	-164.7656
950.000000	75.004745	-165.8917
962.000000	74.972458	-167.8563
975.000000	74.589317	-169.3591
988.000000	74.045456	-167.5863
1000.000000	73.871002	-164.0274
1015.000000	74.086159	-160.5903
1030.000000	74.394699	-158.8075
1044.000000	74.650795	-157.8409
1060.000000	74.913818	-157.0435
1075.000000	75.153275	-156.4225
1090.000000	75.395638	-155.9501
1106.000000	75.664833	-155.7855
1120.000000	75.899841	-156.1397
1138.000000	76.096924	-157.7080
1150.000000	76.030968	-159.1983
1172.000000	75.410263	-158.9082
1180.000000	75.202065	-157.1669
1206.000000	75.285072	-150.3913
1220.000000	75.565651	-147.9896
1241.000000	75.962234	-145.6527
1250.000000	76.109474	-144.8853
1265.000000	76.330238	-143.8013
1280.000000	76.527031	-143.0327
1315.000000	76.917313	-142.6692
1320.000000	76.968132	-142.6912
1340.000000	77.160423	-142.7894
1360.000000	77.336876	-142.8855
1380.000000	77.502594	-142.9823
1400.000000	77.660606	-143.0878
1430.000000	77.886406	-143.2450
1450.000000	78.029800	-143.3939
1475.000000	78.202965	-143.6537
1500.000000	78.369614	-143.9105
1525.000000	78.531952	-143.8499
1550.000000	78.692993	-143.4334
1575.000000	78.851349	-143.2961
1600.000000	79.012299	-143.4550
1625.000000	79.177162	-143.7790
1650.000000	79.348351	-144.2222
1675.000000	79.525902	-144.7157
1700.000000	79.708008	-145.2098
1725.000000	79.892540	-145.6288
1750.000000	80.079727	-145.6754
1775.000000	80.274887	-145.0199
1800.000000	80.475830	-143.9145
1825.000000	80.681313	-142.7212
1850.000000	80.892647	-141.5461
1875.000000	81.109131	-140.4236
1900.000000	81.329918	-139.3697
1925.000000	81.554649	-138.3676
1950.000000	81.783325	-137.4369
1975.000000	82.015579	-136.6048
2000.000000	82.249657	-135.8170
2030.000000	82.530655	-134.8770
2060.000000	82.809052	-133.9735
2090.000000	83.083046	-133.1236
2120.000000	83.351234	-132.3479
2140.000000	83.526337	-131.8506
2180.000000	83.864578	-130.8542
2200.000000	84.027252	-130.3831
2240.000000	84.342705	-129.7843
2270.000000	84.567101	-130.1748
2300.000000	84.777245	-131.4033
2330.000000	84.972519	-133.0294
2360.000000	85.152214	-134.7639
2400.000000	85.365707	-137.1001
2430.000000	85.505112	-138.8456
2470.000000	85.664932	-141.2303
2500.000000	85.765930	-143.0333
2540.000000	85.872787	-145.1697
2580.000000	85.947945	-146.2767
2620.000000	85.991898	-146.1636
2650.000000	86.004601	-145.7807
2690.000000	85.995232	-145.6558
2720.000000	85.967628	-146.2877
2760.000000	85.908310	-147.9039
2800.000000	85.829590	-149.7611
2850.000000	85.713791	-151.9690
2900.000000	85.593735	-153.9016
2950.000000	85.479378	-155.5832
3000.000000	85.365417	-157.1412
3040.000000	85.266647	-158.2668
3070.000000	85.186615	-159.0279
3110.000000	85.073029	-159.9403
3150.000000	84.953346	-160.7130
3200.000000	84.797302	-161.5028
3250.000000	84.635757	-162.1439
3300.000000	84.474480	-162.5039
3350.000000	84.319107	-162.5671
3400.000000	84.173882	-162.5398
3450.000000	84.043495	-162.4475
3500.000000	83.932480	-162.1915
3550.000000	83.845299	-161.7670
3600.000000	83.782471	-161.2099
3650.000000	83.742889	-160.5417
3700.000000	83.724075	-159.8045
3750.000000	83.724594	-159.0372
3820.000000	83.756790	-158.1031
3870.000000	83.799240	-157.5802
3950.000000	83.898407	-156.7402
4000.000000	83.982796	-156.1268
4060.000000	84.114693	-155.3483
4120.000000	84.282715	-154.5659
4180.000000	84.489082	-153.7314
4250.000000	84.788513	-152.6828
4310.000000	85.091972	-151.8961
4370.000000	85.414368	-151.2139
4440.000000	85.781952	-150.6523
4500.000000	86.085579	-150.4974
4550.000000	86.343315	-150.5306
4620.000000	86.731659	-150.8295
4680.000000	87.097260	-151.4132
4750.000000	87.558777	-152.5514
4820.000000	88.039703	-154.3622
4870.000000	88.380150	-156.2275
4940.000000	88.824402	-159.6468
5000.000000	89.138832	-163.2365
5080.000000	89.394287	-168.8127
5150.000000	89.420547	-174.0500
5220.000000	89.250320	-179.1370
5300.000000	88.833191	175.6620
5380.000000	88.214745	171.4022
5450.000000	87.529831	168.5649
5520.000000	86.712700	166.7634
5600.000000	85.599808	166.8313
5700.000000	84.194641	172.9466
5800.000000	84.203339	-177.1512
5900.000000	84.968071	-176.5380
6000.000000	84.717422	179.6819
6080.000000	84.104935	178.9494
6150.000000	83.549049	-179.9673
6220.000000	83.059364	-177.8734
6300.000000	82.604912	-174.8286
6400.000000	82.193642	-170.6600
6500.000000	81.939110	-166.1937
6600.000000	81.813850	-161.4258
6700.000000	81.782906	-156.1617
6800.000000	81.811020	-149.7907
6900.000000	81.870674	-142.3718
7000.000000	81.932869	-133.8376
7100.000000	81.939880	-123.7734
7200.000000	81.834381	-111.9499
7300.000000	81.588577	-98.3744
7400.000000	81.244087	-83.4630
7500.000000	80.946068	-68.3452
7620.000000	80.881805	-52.2703
7750.000000	81.208389	-39.8852
7880.000000	81.691772	-33.3054
8000.000000	82.011497	-30.7993
8120.000000	82.062599	-29.6621
8250.000000	81.787086	-28.4015
8380.000000	81.237587	-27.1000
8500.000000	80.578835	-25.7964
8620.000000	79.865746	-22.6027
8750.000000	79.118896	-17.1434
8850.000000	78.603859	-12.1591
9000.000000	77.959602	-3.8441
9120.000000	77.562096	3.2300
9250.000000	77.244186	10.7607
9380.000000	77.044739	17.9270
9500.000000	77.005959	24.2848
9620.000000	77.153725	30.1617
9750.000000	77.502357	35.4235
9880.000000	77.926613	39.1922
10000.000000	78.262581	41.0372
10150.000000	78.452629	39.4581
10300.000000	78.226593	31.7788
10440.000000	77.564819	21.4326
10600.000000	76.334999	9.7518
10750.000000	74.908096	0.5042
10900.000000	73.458900	-6.7109
11060.000000	72.094650	-12.2180
11200.000000	71.104492	-15.5435
11380.000000	70.024513	-18.1472
11500.000000	69.352737	-18.9592
11720.000000	68.121864	-19.3681
11800.000000	67.666122	-19.3464
12060.000000	66.155739	-19.0475
12200.000000	65.350029	-18.5996
12410.000000	64.252113	-15.2639
12500.000000	63.864326	-11.8756
12650.000000	63.396069	-3.7633
12800.000000	63.203991	5.9207
13150.000000	63.690838	29.9168
13200.000000	63.816742	33.3474
13400.000000	64.315636	46.7608
13600.000000	64.674751	59.7804
13800.000000	64.777107	72.5814
14000.000000	64.647797	83.4494
14300.000000	64.484344	88.9657
14500.000000	64.742149	86.6279
14750.000000	65.606476	81.6214
15000.000000	66.618561	74.4141
15250.000000	67.094398	64.9775
15500.000000	66.845337	55.1706
15750.000000	65.883232	46.8889
16000.000000	64.032867	40.4220
16250.000000	61.246246	34.9847
16500.000000	57.946854	30.1484
16750.000000	54.548096	25.9430
17000.000000	50.959442	24.7677
17250.000000	47.034042	33.4471
17500.000000	44.505558	46.8844
17750.000000	45.005077	48.8483
18000.000000	46.330029	45.3041
18250.000000	47.409958	42.9581
18500.000000	49.696785	37.2101
18750.000000	51.984196	28.7826
19000.000000	51.715111	20.8365
19250.000000	48.848526	14.4056
19500.000000	45.433689	8.9800
19750.000000	43.399288	4.2975
