* Measurement data measured by REW V5.20 Beta 55
* Source: Microphone (Realtek USB2.0 Audio), MICROPHONE (Master Volume), R, volume: 0.588. Timing signal peak level -13.1 dBFS, measurement signal peak level -8.8 dBFS
* Format: 2M Log Swept Sine, 1 sweep at -10.0 dBFS using an acoustic timing reference
* Dated: Jun 17, 2020 1:17:09 PM
* REW Settings:
*  C-weighting compensation: Off
*  Target level: 75.0 dB
* Note: Delay -0.0435 ms (-15 mm, -0.59 in) using estimated IR delay relative to Acoustic reference on SPEAKER R with no timing offset
* Measurement: T2 Plus R
* Smoothing: 1/24 octave
* Frequency Step: 1/48 octave
* Start Frequency: 20.000 Hz
*
* Freq(Hz)	SPL(dB)	Phase(degrees)
20.000000	73.208160	-78.8526
20.299999	73.263847	-79.6745
20.600000	73.369385	-81.0903
20.900000	73.470108	-82.4351
21.200001	73.563019	-83.5770
21.400000	73.617691	-84.2339
21.799999	73.702118	-85.4203
22.000000	73.733719	-86.0056
22.400000	73.785210	-87.2552
22.700001	73.823891	-88.3327
23.000000	73.870064	-89.5307
23.299999	73.922417	-90.7664
23.600000	73.968834	-91.9275
24.000000	74.003937	-93.3127
24.299999	74.022400	-94.2823
24.700001	74.066879	-95.4982
25.000000	74.120415	-96.3214
25.400000	74.199585	-97.3063
25.799999	74.254028	-98.2875
26.200001	74.273979	-99.4010
26.500000	74.276894	-100.3056
26.900000	74.283463	-101.5152
27.200001	74.302505	-102.3868
27.600000	74.352356	-103.4620
28.000000	74.416435	-104.4770
28.500000	74.500450	-105.7892
29.000000	74.562683	-107.0240
29.500000	74.569366	-108.1974
30.000000	74.567604	-109.4566
30.400000	74.587082	-110.4157
30.700001	74.607841	-111.0678
31.100000	74.635391	-111.8782
31.500000	74.661232	-112.6622
32.000000	74.689713	-113.6402
32.500000	74.716141	-114.6407
33.000000	74.749207	-115.5950
33.500000	74.778671	-116.4195
34.000000	74.793205	-117.2527
34.500000	74.810898	-118.2188
35.000000	74.840950	-119.2254
35.500000	74.869827	-120.1819
36.000000	74.889725	-121.0766
36.500000	74.907822	-121.9312
37.000000	74.937584	-122.7352
37.500000	74.969513	-123.4424
38.200001	74.979027	-124.4785
38.700001	74.984291	-125.3399
39.500000	75.028458	-126.4659
40.000000	75.045082	-127.0234
40.599998	75.038490	-127.8451
41.200001	75.029991	-128.8313
41.799999	75.042442	-129.6983
42.500000	75.069733	-130.5051
43.099998	75.092346	-131.2798
43.700001	75.106979	-132.1210
44.400002	75.108017	-132.9679
45.000000	75.114815	-133.5663
45.500000	75.131813	-134.0378
46.200001	75.152405	-134.7603
46.799999	75.154488	-135.4565
47.500000	75.148094	-136.2612
48.200001	75.149460	-137.0074
48.700001	75.157791	-137.5019
49.400002	75.170158	-138.1498
50.000000	75.174965	-138.6705
50.799999	75.162666	-139.4202
51.500000	75.151558	-140.2203
52.200001	75.152534	-140.9511
53.000000	75.143539	-141.5956
53.799999	75.126495	-142.2317
54.500000	75.122192	-142.7922
55.200001	75.126450	-143.3122
56.000000	75.133583	-143.8714
57.000000	75.129555	-144.5570
58.000000	75.115776	-145.2295
59.000000	75.112061	-145.9519
60.000000	75.112106	-146.6706
60.799999	75.101128	-147.1729
61.500000	75.091629	-147.6324
62.200001	75.093437	-148.1298
63.000000	75.102386	-148.7040
64.000000	75.097916	-149.3962
65.000000	75.080688	-150.0195
66.000000	75.083794	-150.5212
67.000000	75.089127	-150.9593
68.000000	75.074928	-151.4185
69.000000	75.052795	-151.9658
70.000000	75.031288	-152.6175
71.000000	75.019928	-153.2252
72.000000	75.020988	-153.7043
73.000000	75.012032	-154.1115
74.000000	74.997971	-154.5286
75.000000	74.982224	-155.0074
76.199997	74.957047	-155.5363
77.500000	74.939743	-156.0052
78.800003	74.934601	-156.5878
80.000000	74.935219	-157.2125
81.199997	74.929893	-157.7511
82.500000	74.911369	-158.1818
83.800003	74.891678	-158.5514
85.000000	74.876884	-158.9736
86.199997	74.860786	-159.4540
87.500000	74.848007	-159.9108
88.500000	74.845901	-160.2574
90.000000	74.828453	-160.8484
91.199997	74.802452	-161.2686
92.500000	74.780457	-161.6543
93.800003	74.764595	-162.0042
95.000000	74.753525	-162.3398
96.199997	74.737846	-162.7336
97.500000	74.713333	-163.1840
98.800003	74.687012	-163.5816
100.000000	74.667519	-163.9176
101.500000	74.648438	-164.3176
103.000000	74.625992	-164.6858
104.400002	74.608482	-165.0843
106.000000	74.589073	-165.5413
107.500000	74.572128	-165.9432
109.000000	74.558640	-166.3761
110.599998	74.537361	-166.7810
112.000000	74.513138	-167.1056
113.800003	74.483139	-167.5075
115.000000	74.466301	-167.7958
117.199997	74.453888	-168.3864
118.000000	74.451500	-168.6112
120.599998	74.428223	-169.2764
122.000000	74.408585	-169.5523
124.099998	74.384331	-169.9075
125.000000	74.377670	-170.0844
126.500000	74.364906	-170.3987
128.000000	74.349998	-170.6956
131.500000	74.324921	-171.4109
132.000000	74.320175	-171.5140
134.000000	74.306084	-171.9029
136.000000	74.293053	-172.2501
138.000000	74.264290	-172.5590
140.000000	74.228493	-172.8454
143.000000	74.166718	-173.2547
145.000000	74.128723	-173.5743
147.500000	74.101471	-174.0905
150.000000	74.081512	-174.6019
152.500000	74.046318	-174.9502
155.000000	74.011292	-175.1757
157.500000	73.987427	-175.4659
160.000000	73.960876	-175.8513
162.500000	73.933968	-176.2666
165.000000	73.901733	-176.6124
167.500000	73.871460	-176.9151
170.000000	73.844643	-177.1954
172.500000	73.815140	-177.4829
175.000000	73.787537	-177.8025
177.500000	73.763229	-178.0850
180.000000	73.741409	-178.3563
182.500000	73.720741	-178.6196
185.000000	73.697014	-178.8879
187.500000	73.668610	-179.1604
190.000000	73.635788	-179.4222
192.500000	73.592926	-179.6878
195.000000	73.546562	-179.9300
197.500000	73.502892	179.8473
200.000000	73.460938	179.6151
203.000000	73.415321	179.3516
206.000000	73.375824	179.1193
209.000000	73.343094	178.8929
212.000000	73.310204	178.5977
214.000000	73.287567	178.3988
218.000000	73.247299	178.1136
220.000000	73.223724	177.9834
224.000000	73.171547	177.7113
227.000000	73.140831	177.5316
230.000000	73.115852	177.3401
233.000000	73.086220	177.1357
236.000000	73.053947	176.9345
240.000000	73.012703	176.6826
243.000000	72.982018	176.5007
247.000000	72.943214	176.2471
250.000000	72.912132	176.0798
254.000000	72.872719	175.8743
258.000000	72.836670	175.6748
262.000000	72.795891	175.5347
265.000000	72.767136	175.4391
269.000000	72.730591	175.2981
272.000000	72.700211	175.1917
276.000000	72.654755	175.0300
280.000000	72.607536	174.8429
285.000000	72.551300	174.6129
290.000000	72.498390	174.4645
295.000000	72.444893	174.3317
300.000000	72.400787	174.1542
304.000000	72.360077	174.0151
307.000000	72.326370	173.9193
311.000000	72.284615	173.7916
315.000000	72.248070	173.6619
320.000000	72.203125	173.5209
325.000000	72.155693	173.3986
330.000000	72.106430	173.2764
335.000000	72.058502	173.1559
340.000000	72.015167	173.0437
345.000000	71.975021	172.9374
350.000000	71.935226	172.8411
355.000000	71.892113	172.7571
360.000000	71.848305	172.6831
365.000000	71.806633	172.6210
370.000000	71.763229	172.5523
375.000000	71.717545	172.4847
382.000000	71.654625	172.4189
387.000000	71.611038	172.3771
395.000000	71.544662	172.3201
400.000000	71.502121	172.2975
406.000000	71.450272	172.2761
412.000000	71.399811	172.2603
418.000000	71.351051	172.2555
425.000000	71.299126	172.2747
431.000000	71.257065	172.2949
437.000000	71.214470	172.3212
444.000000	71.165398	172.3654
450.000000	71.124077	172.4037
455.000000	71.089325	172.4368
462.000000	71.041817	172.4893
468.000000	71.001831	172.5414
475.000000	70.953972	172.6193
482.000000	70.905907	172.7255
487.000000	70.873146	172.8179
494.000000	70.831856	172.9520
500.000000	70.801170	173.0430
508.000000	70.759956	173.1216
515.000000	70.721237	173.1948
522.000000	70.682205	173.2873
530.000000	70.637993	173.4034
538.000000	70.595070	173.5327
545.000000	70.559067	173.6417
552.000000	70.524178	173.7425
560.000000	70.485664	173.8590
570.000000	70.437935	174.0059
580.000000	70.391205	174.1687
590.000000	70.347328	174.3514
600.000000	70.306831	174.5652
608.000000	70.275558	174.7574
615.000000	70.248222	174.9333
622.000000	70.220428	175.1081
630.000000	70.187782	175.3027
640.000000	70.149818	175.5278
650.000000	70.118500	175.7328
660.000000	70.090485	175.9592
670.000000	70.064346	176.2093
680.000000	70.040573	176.4489
690.000000	70.017868	176.6894
700.000000	69.994438	176.9339
710.000000	69.970581	177.1797
720.000000	69.943954	177.4296
730.000000	69.915192	177.6875
740.000000	69.887268	177.9514
750.000000	69.862808	178.2240
762.000000	69.838074	178.5698
775.000000	69.814896	178.9695
788.000000	69.796753	179.3743
800.000000	69.785782	179.7528
812.000000	69.781082	-179.8465
825.000000	69.782684	-179.3838
838.000000	69.788414	-178.9053
850.000000	69.796570	-178.4512
862.000000	69.808167	-177.9822
875.000000	69.825554	-177.4548
885.000000	69.841850	-177.0346
900.000000	69.872810	-176.3908
912.000000	69.905701	-175.8597
925.000000	69.950577	-175.2558
938.000000	70.006897	-174.6163
950.000000	70.069351	-173.9960
962.000000	70.140640	-173.3539
975.000000	70.228020	-172.6481
988.000000	70.327202	-171.9344
1000.000000	70.429733	-171.2696
1015.000000	70.574669	-170.4436
1030.000000	70.741745	-169.6198
1044.000000	70.918884	-168.8457
1060.000000	71.144997	-167.9741
1075.000000	71.377602	-167.2028
1090.000000	71.626282	-166.5079
1106.000000	71.905090	-165.8692
1120.000000	72.158356	-165.4079
1138.000000	72.495155	-164.9440
1150.000000	72.724762	-164.7202
1172.000000	73.148392	-164.5081
1180.000000	73.300751	-164.4983
1206.000000	73.777824	-164.7151
1220.000000	74.019005	-164.9704
1241.000000	74.353691	-165.4964
1250.000000	74.485519	-165.7620
1265.000000	74.688866	-166.2348
1280.000000	74.872330	-166.7190
1315.000000	75.228920	-167.8123
1320.000000	75.272461	-167.9612
1340.000000	75.429565	-168.5385
1360.000000	75.561539	-169.0856
1380.000000	75.673737	-169.5788
1400.000000	75.770187	-170.0096
1430.000000	75.890648	-170.5590
1450.000000	75.958656	-170.8524
1475.000000	76.032448	-171.1762
1500.000000	76.095581	-171.4950
1525.000000	76.148827	-171.7874
1550.000000	76.194839	-172.0247
1575.000000	76.237915	-172.1958
1600.000000	76.280617	-172.3214
1625.000000	76.324463	-172.4303
1650.000000	76.371887	-172.5424
1675.000000	76.423004	-172.6956
1700.000000	76.475922	-172.8587
1725.000000	76.529449	-172.9572
1750.000000	76.583931	-172.9930
1775.000000	76.640160	-173.0329
1800.000000	76.699112	-173.1105
1825.000000	76.760361	-173.2401
1850.000000	76.824150	-173.4140
1875.000000	76.889130	-173.6196
1900.000000	76.954727	-173.8249
1925.000000	77.020935	-174.0217
1950.000000	77.087379	-174.2351
1975.000000	77.154137	-174.4659
2000.000000	77.219757	-174.7074
2030.000000	77.293427	-175.0126
2060.000000	77.360596	-175.2903
2090.000000	77.420601	-175.5241
2120.000000	77.472580	-175.7341
2140.000000	77.502930	-175.8586
2180.000000	77.552628	-176.0689
2200.000000	77.572250	-176.1480
2240.000000	77.603020	-176.2622
2270.000000	77.620384	-176.2852
2300.000000	77.632294	-176.2529
2330.000000	77.637039	-176.2006
2360.000000	77.635445	-176.1314
2400.000000	77.624054	-176.0498
2430.000000	77.608978	-175.9852
2470.000000	77.584320	-175.8350
2500.000000	77.563553	-175.6934
2540.000000	77.531929	-175.4704
2580.000000	77.493240	-175.1796
2620.000000	77.446205	-174.8504
2650.000000	77.405937	-174.6056
2690.000000	77.346161	-174.2510
2720.000000	77.296814	-173.9614
2760.000000	77.226151	-173.5776
2800.000000	77.152199	-173.2008
2850.000000	77.062111	-172.7055
2900.000000	76.987404	-172.2087
2950.000000	76.930672	-172.0864
3000.000000	76.882011	-172.0136
3040.000000	76.842087	-171.4977
3070.000000	76.807007	-170.9841
3110.000000	76.752945	-170.2672
3150.000000	76.691116	-169.4997
3200.000000	76.603195	-168.4417
3250.000000	76.503784	-167.2970
3300.000000	76.395752	-166.0655
3350.000000	76.282761	-164.7374
3400.000000	76.169479	-163.3384
3450.000000	76.059570	-161.8728
3500.000000	75.956543	-160.3626
3550.000000	75.863701	-158.8334
3600.000000	75.781967	-157.2565
3650.000000	75.710052	-155.6103
3700.000000	75.645325	-153.8769
3750.000000	75.585686	-152.0407
3820.000000	75.509262	-149.3492
3870.000000	75.456856	-147.4121
3950.000000	75.373734	-144.3201
4000.000000	75.325058	-142.3417
4060.000000	75.277428	-139.9318
4120.000000	75.245621	-137.5551
4180.000000	75.232147	-135.5508
4250.000000	75.246719	-134.3588
4310.000000	75.286049	-134.0604
4370.000000	75.329559	-133.9228
4440.000000	75.354843	-133.7696
4500.000000	75.353622	-133.6136
4550.000000	75.352272	-133.4341
4620.000000	75.378273	-133.1267
4680.000000	75.445190	-132.8748
4750.000000	75.591507	-132.6366
4820.000000	75.819763	-132.5558
4870.000000	76.036751	-132.6852
4940.000000	76.415924	-133.2331
5000.000000	76.796532	-134.1213
5080.000000	77.336258	-136.0730
5150.000000	77.785797	-138.6613
5220.000000	78.162750	-142.1223
5300.000000	78.444931	-147.0533
5380.000000	78.520775	-152.5726
5450.000000	78.411606	-157.2779
5520.000000	78.164597	-161.4690
5600.000000	77.759270	-165.3364
5700.000000	77.155319	-168.4583
5800.000000	76.526619	-170.0168
5900.000000	75.903542	-170.6809
6000.000000	75.299133	-170.7240
6080.000000	74.855270	-170.3622
6150.000000	74.516426	-169.8251
6220.000000	74.236107	-169.1604
6300.000000	73.994858	-168.2905
6400.000000	73.812622	-166.9621
6500.000000	73.748260	-165.2871
6600.000000	73.777451	-163.2158
6700.000000	73.867996	-160.6710
6800.000000	73.986008	-157.5908
6900.000000	74.113686	-153.7562
7000.000000	74.239693	-148.7661
7100.000000	74.339539	-142.1848
7200.000000	74.413330	-133.8073
7300.000000	74.496056	-123.8870
7400.000000	74.634567	-113.1930
7500.000000	74.860863	-102.7797
7620.000000	75.203529	-92.9134
7750.000000	75.496925	-87.7345
7880.000000	75.558167	-87.1015
8000.000000	75.358093	-88.1822
8120.000000	74.929825	-89.1745
8250.000000	74.257599	-89.6441
8380.000000	73.425583	-90.5690
8500.000000	72.568123	-91.9582
8620.000000	71.675552	-93.0102
8750.000000	70.723892	-93.5189
8850.000000	70.033356	-93.6044
9000.000000	69.085617	-93.5637
9120.000000	68.404251	-93.3609
9250.000000	67.734032	-92.8143
9380.000000	67.130081	-92.0917
9500.000000	66.666985	-91.4271
9620.000000	66.346313	-90.7324
9750.000000	66.162827	-89.9530
9880.000000	66.072510	-89.2412
10000.000000	66.003311	-88.7178
10150.000000	65.899155	-88.3954
10300.000000	65.776100	-88.6383
10440.000000	65.666077	-89.5095
10600.000000	65.608658	-91.4011
10750.000000	65.699142	-94.0335
10900.000000	65.969887	-97.4123
11060.000000	66.408264	-101.9007
11200.000000	66.810799	-106.4530
11380.000000	67.193855	-112.3255
11500.000000	67.334366	-115.7177
11720.000000	67.467842	-120.9705
11800.000000	67.507263	-122.9651
12060.000000	67.504547	-131.3607
12200.000000	67.300499	-136.8952
12410.000000	66.695869	-145.0522
12500.000000	66.382324	-148.1511
12650.000000	65.913940	-152.5949
12800.000000	65.649483	-156.2714
13150.000000	65.988739	-163.7147
13200.000000	66.094460	-164.8107
13400.000000	66.474152	-169.4466
13600.000000	66.642563	-174.2335
13800.000000	66.512665	-179.0123
14000.000000	66.149750	175.9886
14300.000000	65.641998	166.6396
14500.000000	65.620651	158.5955
14750.000000	65.872269	148.4133
15000.000000	65.976219	141.4349
15250.000000	65.516495	137.3391
15500.000000	64.373886	135.6387
15750.000000	62.611427	136.4256
16000.000000	60.123627	139.6641
16250.000000	56.851326	144.7525
16500.000000	53.211060	149.7808
16750.000000	49.714584	151.5507
17000.000000	46.481979	149.7751
17250.000000	43.379658	146.7724
17500.000000	40.353790	143.4036
17750.000000	38.063736	139.8214
18000.000000	37.346748	136.2798
18250.000000	37.214138	132.9545
18500.000000	38.515377	129.7744
18750.000000	40.420063	126.9775
19000.000000	39.983379	125.3210
19250.000000	36.908298	125.6827
19500.000000	33.144653	128.3171
19750.000000	31.049366	132.0582
