* Measurement data measured by REW V5.19
* Source: ASIO MOTU M Series, In 1
* Format: 1M Log Swept Sine, 1 sweep at -3.0 dBFS  With no timing reference
* Dated: 21 Feb, 2023 6:40:25 PM
* REW Settings:
*  C-weighting compensation: Off
*  Target level: 75.0 dB
* Note: ; 
* Measurement: Feb 21 18:40:25
* Smoothing: 1/48 octave
* Frequency Step: 1/48 octave
* Start Frequency: 10.1 Hz
*
* Freq(Hz), SPL(dB), Phase(degrees)
10.145, 69.648, 64.719
10.293, 69.678, 63.953
10.443, 69.709, 62.926
10.595, 69.758, 61.587
10.749, 69.809, 60.192
10.905, 69.848, 59.134
11.064, 69.882, 58.194
11.225, 69.921, 57.118
11.388, 69.961, 55.982
11.554, 69.999, 54.884
11.722, 70.035, 53.808
11.892, 70.069, 52.741
12.065, 70.101, 51.682
12.241, 70.133, 50.602
12.419, 70.162, 49.516
12.599, 70.189, 48.458
12.782, 70.213, 47.413
12.968, 70.236, 46.356
13.157, 70.255, 45.310
13.348, 70.273, 44.287
13.543, 70.288, 43.277
13.740, 70.302, 42.279
13.939, 70.315, 41.298
14.142, 70.327, 40.333
14.348, 70.339, 39.381
14.557, 70.351, 38.436
14.768, 70.364, 37.494
14.983, 70.375, 36.553
15.201, 70.386, 35.611
15.422, 70.395, 34.665
15.646, 70.401, 33.722
15.874, 70.405, 32.784
16.105, 70.406, 31.858
16.339, 70.404, 30.952
16.577, 70.401, 30.068
16.818, 70.399, 29.205
17.063, 70.398, 28.358
17.311, 70.399, 27.513
17.563, 70.402, 26.657
17.818, 70.406, 25.781
18.077, 70.407, 24.876
18.340, 70.403, 23.952
18.607, 70.391, 23.025
18.877, 70.371, 22.119
19.152, 70.345, 21.259
19.431, 70.316, 20.464
19.713, 70.290, 19.731
20.000, 70.270, 19.041
20.291, 70.259, 18.361
20.586, 70.256, 17.655
20.885, 70.255, 16.900
21.189, 70.250, 16.093
21.497, 70.238, 15.260
21.810, 70.217, 14.439
22.127, 70.190, 13.661
22.449, 70.161, 12.939
22.776, 70.136, 12.261
23.107, 70.118, 11.593
23.443, 70.104, 10.903
23.784, 70.091, 10.171
24.130, 70.073, 9.401
24.481, 70.048, 8.619
24.837, 70.014, 7.853
25.198, 69.975, 7.125
25.565, 69.935, 6.439
25.937, 69.896, 5.785
26.314, 69.859, 5.141
26.697, 69.825, 4.491
27.085, 69.790, 3.827
27.479, 69.752, 3.156
27.879, 69.711, 2.493
28.284, 69.669, 1.844
28.696, 69.628, 1.202
29.113, 69.587, 0.552
29.537, 69.544, -0.116
29.966, 69.495, -0.780
30.402, 69.439, -1.397
30.844, 69.384, -1.936
31.293, 69.339, -2.416
31.748, 69.308, -2.904
32.210, 69.285, -3.467
32.678, 69.257, -4.112
33.154, 69.215, -4.780
33.636, 69.163, -5.394
34.125, 69.109, -5.929
34.621, 69.061, -6.426
35.125, 69.019, -6.945
35.636, 68.973, -7.506
36.154, 68.917, -8.076
36.680, 68.853, -8.606
37.214, 68.787, -9.080
37.755, 68.725, -9.536
38.304, 68.663, -10.011
38.861, 68.594, -10.481
39.427, 68.521, -10.892
40.000, 68.455, -11.246
40.582, 68.400, -11.620
41.172, 68.341, -12.038
41.771, 68.274, -12.407
42.379, 68.215, -12.674
42.995, 68.176, -12.945
43.620, 68.140, -13.318
44.255, 68.094, -13.722
44.898, 68.044, -14.071
45.552, 68.000, -14.420
46.214, 67.955, -14.824
46.886, 67.904, -15.237
47.568, 67.853, -15.662
48.260, 67.799, -16.165
48.962, 67.728, -16.689
49.674, 67.648, -17.107
50.397, 67.584, -17.476
51.130, 67.523, -17.941
51.874, 67.445, -18.394
52.628, 67.370, -18.693
53.394, 67.316, -19.029
54.170, 67.246, -19.481
54.958, 67.155, -19.818
55.758, 67.066, -20.089
56.569, 66.959, -20.279
57.391, 66.875, -20.209
58.226, 66.844, -20.378
59.073, 66.772, -20.871
59.932, 66.678, -21.102
60.804, 66.624, -21.369
61.688, 66.552, -21.773
62.586, 66.485, -22.049
63.496, 66.421, -22.448
64.420, 66.333, -22.729
65.357, 66.263, -22.953
66.307, 66.171, -23.320
67.272, 66.054, -23.490
68.250, 65.953, -23.601
69.243, 65.851, -23.758
70.250, 65.749, -23.959
71.272, 65.630, -24.179
72.309, 65.503, -24.235
73.360, 65.389, -24.204
74.427, 65.277, -24.164
75.510, 65.156, -24.084
76.608, 65.032, -23.878
77.723, 64.922, -23.663
78.853, 64.803, -23.416
80.000, 64.704, -23.024
81.164, 64.621, -22.679
82.344, 64.546, -22.273
83.542, 64.474, -21.883
84.757, 64.400, -21.386
85.990, 64.334, -20.861
87.241, 64.271, -20.188
88.510, 64.257, -19.399
89.797, 64.279, -18.787
91.103, 64.315, -18.192
92.428, 64.395, -17.760
93.773, 64.481, -17.709
95.137, 64.545, -18.050
96.520, 64.572, -18.557
97.924, 64.577, -19.247
99.349, 64.535, -19.915
100.794, 64.471, -20.335
102.260, 64.376, -20.683
103.747, 64.257, -20.426
105.256, 64.208, -20.362
106.787, 64.086, -20.304
108.340, 63.996, -19.840
109.916, 63.938, -19.298
111.515, 63.883, -18.764
113.137, 63.846, -18.054
114.783, 63.863, -17.448
116.452, 63.937, -17.155
118.146, 64.047, -17.278
119.865, 64.142, -17.594
121.608, 64.229, -18.010
123.377, 64.267, -18.649
125.171, 64.266, -19.294
126.992, 64.230, -20.027
128.839, 64.193, -20.572
130.713, 64.136, -21.193
132.615, 64.061, -21.635
134.543, 63.982, -22.065
136.500, 63.897, -22.508
138.486, 63.799, -22.922
140.500, 63.697, -23.237
142.544, 63.586, -23.480
144.617, 63.477, -23.665
146.721, 63.366, -23.812
148.855, 63.256, -23.884
151.020, 63.146, -23.895
153.217, 63.032, -23.867
155.445, 62.916, -23.798
157.706, 62.805, -23.679
160.000, 62.702, -23.541
162.327, 62.598, -23.306
164.688, 62.493, -22.977
167.084, 62.395, -22.584
169.514, 62.313, -22.243
171.980, 62.231, -21.877
174.481, 62.177, -21.485
177.019, 62.123, -21.144
179.594, 62.076, -20.819
182.206, 62.029, -20.506
184.856, 61.989, -20.247
187.545, 61.947, -20.005
190.273, 61.916, -19.748
193.041, 61.891, -19.639
195.849, 61.857, -19.577
198.697, 61.819, -19.577
201.587, 61.765, -19.602
204.520, 61.706, -19.635
207.494, 61.636, -19.671
210.512, 61.558, -19.715
213.574, 61.476, -19.700
216.681, 61.389, -19.551
219.833, 61.304, -19.398
223.030, 61.203, -19.341
226.274, 61.109, -19.133
229.565, 61.014, -18.912
232.905, 60.916, -18.661
236.292, 60.819, -18.326
239.729, 60.735, -18.009
243.216, 60.636, -17.761
246.754, 60.535, -17.426
250.343, 60.444, -17.025
253.984, 60.355, -16.649
257.678, 60.245, -16.185
261.426, 60.163, -15.735
265.229, 60.076, -15.309
269.087, 59.999, -14.970
273.001, 59.899, -14.508
276.972, 59.803, -13.937
281.000, 59.714, -13.419
285.088, 59.625, -12.846
289.234, 59.533, -12.312
293.441, 59.435, -11.852
297.710, 59.358, -11.058
302.040, 59.263, -10.517
306.433, 59.130, -9.872
310.890, 59.052, -8.982
315.412, 58.979, -8.195
320.000, 58.879, -7.295
324.655, 58.810, -6.771
329.377, 58.757, -6.043
334.168, 58.616, -4.612
339.028, 58.512, -3.460
343.959, 58.464, -2.109
348.962, 58.404, -0.710
354.038, 58.304, 0.461
359.188, 58.276, 2.228
364.412, 58.355, 3.770
369.713, 58.323, 4.716
375.090, 58.320, 6.073
380.546, 58.427, 7.872
386.081, 58.522, 9.583
391.697, 58.626, 10.554
397.395, 58.763, 11.651
403.175, 58.925, 12.290
409.039, 59.024, 13.260
414.989, 59.200, 14.413
421.025, 59.321, 14.869
427.149, 59.336, 14.489
433.362, 59.380, 14.721
439.665, 59.469, 15.090
446.060, 59.527, 15.578
452.548, 59.584, 15.928
459.131, 59.632, 16.289
465.809, 59.692, 16.614
472.584, 59.720, 17.012
479.458, 59.774, 17.282
486.432, 59.792, 17.561
493.507, 59.810, 17.871
500.686, 59.825, 18.372
507.968, 59.844, 18.769
515.357, 59.863, 19.314
522.853, 59.890, 19.839
530.458, 59.924, 20.416
538.174, 59.959, 20.828
546.002, 59.973, 21.401
553.943, 59.989, 21.972
562.001, 60.007, 22.606
570.175, 60.036, 23.200
578.469, 60.065, 23.871
586.883, 60.095, 24.554
595.419, 60.138, 25.259
604.080, 60.187, 25.994
612.866, 60.239, 26.697
621.780, 60.302, 27.371
630.824, 60.373, 27.990
640.000, 60.437, 28.592
649.309, 60.509, 29.444
658.753, 60.625, 30.058
668.335, 60.695, 30.877
678.056, 60.758, 31.399
687.919, 60.883, 31.506
697.925, 60.939, 31.706
708.076, 60.984, 32.058
718.376, 61.035, 32.495
728.825, 61.090, 32.995
739.426, 61.130, 33.366
750.181, 61.163, 33.938
761.093, 61.236, 34.595
772.163, 61.318, 35.414
783.394, 61.421, 36.024
794.789, 61.522, 36.387
806.349, 61.596, 36.652
818.078, 61.652, 36.980
829.977, 61.703, 37.412
842.050, 61.751, 37.919
854.297, 61.805, 38.443
866.724, 61.864, 39.041
879.330, 61.926, 39.681
892.120, 61.990, 40.317
905.097, 62.061, 40.989
918.262, 62.139, 41.690
931.618, 62.223, 42.403
945.169, 62.315, 43.136
958.917, 62.415, 43.870
972.864, 62.526, 44.597
987.015, 62.643, 45.303
1001.371, 62.766, 45.979
1015.937, 62.898, 46.596
1030.714, 63.033, 47.187
1045.706, 63.167, 47.775
1060.916, 63.308, 48.324
1076.347, 63.449, 48.837
1092.003, 63.593, 49.335
1107.887, 63.740, 49.815
1124.001, 63.890, 50.278
1140.350, 64.044, 50.724
1156.937, 64.203, 51.147
1173.765, 64.365, 51.534
1190.838, 64.533, 51.886
1208.159, 64.703, 52.193
1225.732, 64.873, 52.453
1243.561, 65.044, 52.664
1261.649, 65.215, 52.837
1280.000, 65.385, 52.970
1298.618, 65.552, 53.070
1317.507, 65.716, 53.150
1336.670, 65.879, 53.217
1356.113, 66.041, 53.272
1375.838, 66.202, 53.320
1395.850, 66.363, 53.359
1416.153, 66.526, 53.393
1436.751, 66.691, 53.414
1457.649, 66.858, 53.414
1478.851, 67.026, 53.394
1500.362, 67.197, 53.354
1522.185, 67.369, 53.290
1544.326, 67.543, 53.200
1566.789, 67.719, 53.086
1589.578, 67.895, 52.946
1612.699, 68.073, 52.777
1636.156, 68.251, 52.580
1659.955, 68.431, 52.358
1684.099, 68.613, 52.101
1708.595, 68.797, 51.810
1733.447, 68.983, 51.482
1758.661, 69.170, 51.113
1784.241, 69.358, 50.700
1810.193, 69.547, 50.241
1836.523, 69.736, 49.735
1863.236, 69.926, 49.180
1890.338, 70.115, 48.571
1917.833, 70.304, 47.908
1945.729, 70.492, 47.185
1974.030, 70.679, 46.398
2002.743, 70.863, 45.544
2031.873, 71.044, 44.619
2061.428, 71.220, 43.621
2091.412, 71.389, 42.550
2121.832, 71.552, 41.408
2152.695, 71.705, 40.197
2184.007, 71.848, 38.924
2215.774, 71.980, 37.593
2248.003, 72.099, 36.209
2280.701, 72.205, 34.777
2313.874, 72.297, 33.307
2347.530, 72.373, 31.809
2381.676, 72.433, 30.290
2416.318, 72.476, 28.766
2451.464, 72.501, 27.250
2487.122, 72.509, 25.754
2523.298, 72.500, 24.291
2560.000, 72.473, 22.878
2597.236, 72.433, 21.524
2635.014, 72.378, 20.241
2673.341, 72.312, 19.041
2712.226, 72.235, 17.931
2751.676, 72.150, 16.917
2791.700, 72.059, 16.001
2832.306, 71.963, 15.189
2873.503, 71.866, 14.477
2915.299, 71.770, 13.862
2957.703, 71.676, 13.335
3000.724, 71.585, 12.885
3044.370, 71.499, 12.500
3088.652, 71.417, 12.169
3133.577, 71.338, 11.891
3179.156, 71.264, 11.663
3225.398, 71.194, 11.487
3272.312, 71.128, 11.368
3319.909, 71.068, 11.301
3368.198, 71.014, 11.290
3417.190, 70.972, 11.321
3466.894, 70.941, 11.388
3517.321, 70.920, 11.484
3568.482, 70.912, 11.595
3620.387, 70.917, 11.706
3673.046, 70.935, 11.803
3726.472, 70.967, 11.869
3780.675, 71.014, 11.876
3835.666, 71.072, 11.812
3891.457, 71.142, 11.645
3948.060, 71.214, 11.373
4005.486, 71.287, 10.980
4063.747, 71.355, 10.457
4122.855, 71.404, 9.861
4182.824, 71.442, 9.279
4243.664, 71.464, 8.749
4305.390, 71.493, 8.405
4368.013, 71.551, 8.111
4431.547, 71.638, 7.799
4496.005, 71.764, 7.370
4561.401, 71.921, 6.670
4627.749, 72.098, 5.578
4695.061, 72.257, 4.054
4763.352, 72.398, 2.188
4832.637, 72.493, -0.057
4902.929, 72.527, -2.601
4974.244, 72.484, -5.285
5046.596, 72.365, -7.949
5120.000, 72.178, -10.473
5194.472, 71.930, -12.837
5270.027, 71.617, -14.879
5346.682, 71.265, -16.514
5424.451, 70.885, -17.709
5503.352, 70.502, -18.476
5583.399, 70.121, -18.888
5664.612, 69.752, -18.946
5747.006, 69.399, -18.653
5830.598, 69.080, -18.042
5915.406, 68.812, -17.243
6001.447, 68.579, -16.464
6088.740, 68.364, -15.599
6177.303, 68.175, -14.602
6267.154, 68.021, -13.525
6358.312, 67.906, -12.415
6450.796, 67.832, -11.325
6544.625, 67.798, -10.308
6639.818, 67.804, -9.417
6736.397, 67.850, -8.722
6834.380, 67.932, -8.296
6933.789, 68.044, -8.215
7034.643, 68.175, -8.561
7136.964, 68.307, -9.405
7240.773, 68.421, -10.795
7346.093, 68.492, -12.747
7452.944, 68.490, -15.213
7561.350, 68.385, -18.051
7671.332, 68.155, -21.034
7782.915, 67.794, -23.881
7896.120, 67.313, -26.311
8010.971, 66.739, -28.123
8127.493, 66.104, -29.210
8245.711, 65.436, -29.543
8365.647, 64.759, -29.120
8487.328, 64.098, -27.984
8610.779, 63.475, -26.230
8736.026, 62.901, -23.974
8863.095, 62.376, -21.294
8992.011, 61.907, -18.232
9122.803, 61.497, -14.824
9255.497, 61.153, -11.105
9390.121, 60.885, -7.126
9526.704, 60.700, -2.947
9665.273, 60.609, 1.362
9805.857, 60.616, 5.725
9948.487, 60.731, 10.049
10093.191, 60.966, 14.230
10240.000, 61.332, 18.129
10388.944, 61.842, 21.543
10540.055, 62.507, 24.167
10693.363, 63.326, 25.533
10848.902, 64.242, 24.812
11006.703, 65.070, 21.287
11166.799, 65.502, 15.299
11329.224, 65.339, 9.461
11494.012, 64.845, 6.895
11661.195, 64.593, 7.248
11830.812, 64.773, 7.034
12002.895, 64.997, 4.069
12177.480, 64.867, -0.441
12354.606, 64.358, -4.048
12534.309, 63.686, -5.513
12716.624, 63.071, -4.955
12901.592, 62.654, -3.039
13089.250, 62.507, -0.503
13279.637, 62.678, 1.918
13472.794, 63.210, 3.310
13668.760, 64.099, 2.190
13867.577, 65.162, -3.648
14069.285, 65.836, -16.048
14273.928, 65.365, -32.438
14481.547, 63.624, -45.587
14692.186, 61.274, -51.755
14905.889, 58.976, -52.366
15122.700, 56.959, -49.727
15342.664, 55.230, -44.941
15565.829, 53.801, -38.739
15792.239, 52.667, -31.637
16021.942, 51.834, -24.040
16254.986, 51.297, -16.227
16491.422, 51.092, -8.722
16731.295, 51.166, -2.006
16974.656, 51.542, 3.696
17221.559, 52.241, 7.506
17472.053, 53.201, 8.062
17726.189, 54.176, 3.700
17984.021, 54.670, -6.271
18245.605, 54.146, -19.023
18510.994, 52.645, -28.695
18780.242, 50.852, -33.907
19053.408, 49.089, -36.674
19330.547, 47.413, -38.673
19611.715, 45.672, -41.347
19896.975, 43.744, -44.548
