* Measurement data measured by REW V5.19
* Source: ASIO MOTU M Series, In 1
* Format: 1M Log Swept Sine, 1 sweep at -3.0 dBFS  With no timing reference
* Dated: 10 Mar, 2023 5:55:24 PM
* REW Settings:
*  C-weighting compensation: Off
*  Target level: 75.0 dB
* Note: ; 
* Measurement: Mar 10 17:55:24
* Smoothing: 1/48 octave
* Frequency Step: 1/48 octave
* Start Frequency: 10.1 Hz
*
* Freq(Hz), SPL(dB), Phase(degrees)
10.145, 68.965, 51.730
10.293, 68.991, 51.187
10.443, 69.017, 50.457
10.595, 69.055, 49.502
10.749, 69.094, 48.509
10.905, 69.119, 47.759
11.064, 69.139, 47.102
11.225, 69.162, 46.367
11.388, 69.186, 45.607
11.554, 69.209, 44.892
11.722, 69.232, 44.209
11.892, 69.256, 43.542
12.065, 69.282, 42.890
12.241, 69.310, 42.223
12.419, 69.339, 41.551
12.599, 69.367, 40.892
12.782, 69.396, 40.235
12.968, 69.424, 39.561
13.157, 69.452, 38.888
13.348, 69.478, 38.224
13.543, 69.502, 37.565
13.740, 69.526, 36.912
13.939, 69.550, 36.267
14.142, 69.573, 35.631
14.348, 69.597, 35.001
14.557, 69.620, 34.374
14.768, 69.642, 33.748
14.983, 69.664, 33.127
15.201, 69.685, 32.511
15.422, 69.705, 31.901
15.646, 69.725, 31.302
15.874, 69.744, 30.713
16.105, 69.763, 30.134
16.339, 69.782, 29.562
16.577, 69.802, 28.992
16.818, 69.823, 28.422
17.063, 69.843, 27.849
17.311, 69.861, 27.276
17.563, 69.879, 26.706
17.818, 69.895, 26.144
18.077, 69.910, 25.593
18.340, 69.926, 25.052
18.607, 69.942, 24.514
18.877, 69.959, 23.977
19.152, 69.974, 23.438
19.431, 69.989, 22.900
19.713, 70.002, 22.374
20.000, 70.014, 21.865
20.291, 70.029, 21.374
20.586, 70.047, 20.887
20.885, 70.069, 20.385
21.189, 70.092, 19.848
21.497, 70.112, 19.276
21.810, 70.125, 18.692
22.127, 70.130, 18.136
22.449, 70.133, 17.636
22.776, 70.140, 17.193
23.107, 70.158, 16.765
23.443, 70.184, 16.295
23.784, 70.211, 15.747
24.130, 70.229, 15.134
24.481, 70.232, 14.525
24.837, 70.224, 13.996
25.198, 70.218, 13.577
25.565, 70.226, 13.223
25.937, 70.249, 12.841
26.314, 70.279, 12.363
26.697, 70.301, 11.794
27.085, 70.308, 11.213
27.479, 70.305, 10.701
27.879, 70.305, 10.276
28.284, 70.316, 9.877
28.696, 70.336, 9.432
29.113, 70.354, 8.921
29.537, 70.365, 8.386
29.966, 70.369, 7.880
30.402, 70.375, 7.410
30.844, 70.387, 6.938
31.293, 70.400, 6.429
31.748, 70.408, 5.893
32.210, 70.410, 5.370
32.678, 70.412, 4.881
33.154, 70.418, 4.411
33.636, 70.427, 3.929
34.125, 70.437, 3.420
34.621, 70.444, 2.897
35.125, 70.449, 2.386
35.636, 70.455, 1.893
36.154, 70.464, 1.397
36.680, 70.475, 0.873
37.214, 70.481, 0.326
37.755, 70.482, -0.209
38.304, 70.482, -0.711
38.861, 70.484, -1.194
39.427, 70.487, -1.677
40.000, 70.491, -2.164
40.582, 70.495, -2.655
41.172, 70.498, -3.159
41.771, 70.499, -3.672
42.379, 70.498, -4.176
42.995, 70.499, -4.686
43.620, 70.498, -5.221
44.255, 70.495, -5.763
44.898, 70.490, -6.292
45.552, 70.488, -6.825
46.214, 70.485, -7.366
46.886, 70.483, -7.906
47.568, 70.480, -8.445
48.260, 70.475, -8.957
48.962, 70.478, -9.441
49.674, 70.487, -9.994
50.397, 70.483, -10.617
51.130, 70.465, -11.185
51.874, 70.448, -11.718
52.628, 70.426, -12.244
53.394, 70.411, -12.705
54.170, 70.413, -13.315
54.958, 70.380, -14.067
55.758, 70.328, -14.483
56.569, 70.343, -14.771
57.391, 70.379, -15.473
58.226, 70.370, -16.244
59.073, 70.361, -16.822
59.932, 70.359, -17.443
60.804, 70.343, -18.034
61.688, 70.328, -18.578
62.586, 70.305, -19.144
63.496, 70.277, -19.659
64.420, 70.256, -20.234
65.357, 70.222, -20.862
66.307, 70.192, -21.428
67.272, 70.171, -22.074
68.250, 70.142, -22.682
69.243, 70.124, -23.252
70.250, 70.092, -23.737
71.272, 70.102, -24.018
72.309, 70.126, -24.784
73.360, 70.060, -25.466
74.427, 70.035, -25.770
75.510, 70.033, -26.465
76.608, 69.998, -27.254
77.723, 69.951, -28.056
78.853, 69.896, -28.677
80.000, 69.874, -29.259
81.164, 69.851, -29.894
82.344, 69.829, -30.542
83.542, 69.793, -31.147
84.757, 69.768, -31.770
85.990, 69.720, -32.440
87.241, 69.679, -33.027
88.510, 69.637, -33.668
89.797, 69.594, -34.251
91.103, 69.557, -34.809
92.428, 69.525, -35.386
93.773, 69.485, -36.021
95.137, 69.439, -36.643
96.520, 69.394, -37.285
97.924, 69.350, -37.960
99.349, 69.298, -38.694
100.794, 69.240, -39.303
102.260, 69.198, -39.918
103.747, 69.151, -40.581
105.256, 69.093, -41.253
106.787, 69.030, -41.870
108.340, 68.970, -42.498
109.916, 68.902, -43.146
111.515, 68.831, -43.764
113.137, 68.759, -44.373
114.783, 68.686, -44.967
116.452, 68.614, -45.549
118.146, 68.539, -46.116
119.865, 68.462, -46.666
121.608, 68.384, -47.207
123.377, 68.301, -47.749
125.171, 68.213, -48.258
126.992, 68.124, -48.754
128.839, 68.029, -49.202
130.713, 67.934, -49.574
132.615, 67.836, -49.870
134.543, 67.737, -50.081
136.500, 67.645, -50.229
138.486, 67.563, -50.317
140.500, 67.493, -50.314
142.544, 67.447, -50.288
144.617, 67.412, -50.270
146.721, 67.389, -50.340
148.855, 67.370, -50.528
151.020, 67.347, -50.736
153.217, 67.325, -50.890
155.445, 67.284, -51.012
157.706, 67.225, -51.081
160.000, 67.147, -50.847
162.327, 67.144, -50.268
164.688, 67.189, -49.684
167.084, 67.286, -49.054
169.514, 67.448, -48.646
171.980, 67.697, -48.356
174.481, 68.031, -48.647
177.019, 68.339, -49.687
179.594, 68.637, -51.415
182.206, 68.853, -53.920
184.856, 68.966, -56.655
187.545, 68.984, -59.331
190.273, 68.930, -61.824
193.041, 68.833, -64.082
195.849, 68.707, -66.081
198.697, 68.562, -67.855
201.587, 68.409, -69.452
204.520, 68.255, -70.904
207.494, 68.098, -72.217
210.512, 67.944, -73.409
213.574, 67.789, -74.522
216.681, 67.638, -75.536
219.833, 67.492, -76.496
223.030, 67.351, -77.409
226.274, 67.210, -78.268
229.565, 67.069, -79.089
232.905, 66.931, -79.873
236.292, 66.795, -80.606
239.729, 66.660, -81.313
243.216, 66.525, -82.002
246.754, 66.398, -82.654
250.343, 66.273, -83.295
253.984, 66.147, -83.899
257.678, 66.024, -84.462
261.426, 65.899, -84.989
265.229, 65.774, -85.492
269.087, 65.657, -85.951
273.001, 65.545, -86.376
276.972, 65.442, -86.749
281.000, 65.349, -87.095
285.088, 65.267, -87.443
289.234, 65.201, -87.827
293.441, 65.142, -88.297
297.710, 65.087, -88.844
302.040, 65.028, -89.464
306.433, 64.959, -90.121
310.890, 64.880, -90.821
315.412, 64.790, -91.527
320.000, 64.691, -92.212
324.655, 64.588, -92.836
329.377, 64.480, -93.422
334.168, 64.371, -93.980
339.028, 64.267, -94.510
343.959, 64.161, -95.021
348.962, 64.057, -95.531
354.038, 63.949, -96.023
359.188, 63.835, -96.487
364.412, 63.716, -96.927
369.713, 63.594, -97.318
375.090, 63.464, -97.641
380.546, 63.335, -97.834
386.081, 63.201, -98.019
391.697, 63.077, -98.059
397.395, 62.964, -97.986
403.175, 62.853, -97.851
409.039, 62.756, -97.745
414.989, 62.672, -97.600
421.025, 62.587, -97.359
427.149, 62.505, -97.032
433.362, 62.436, -96.581
439.665, 62.394, -95.982
446.060, 62.388, -95.308
452.548, 62.426, -94.656
459.131, 62.502, -94.143
465.809, 62.604, -93.867
472.584, 62.717, -93.867
479.458, 62.835, -94.092
486.432, 62.944, -94.490
493.507, 63.039, -95.070
500.686, 63.114, -95.804
507.968, 63.164, -96.621
515.357, 63.185, -97.462
522.853, 63.179, -98.270
530.458, 63.155, -98.972
538.174, 63.122, -99.547
546.002, 63.086, -100.000
553.943, 63.056, -100.346
562.001, 63.036, -100.646
570.175, 63.033, -100.917
578.469, 63.039, -101.166
586.883, 63.050, -101.467
595.419, 63.071, -101.814
604.080, 63.092, -102.253
612.866, 63.108, -102.755
621.780, 63.113, -103.283
630.824, 63.110, -103.817
640.000, 63.093, -104.343
649.309, 63.070, -104.790
658.753, 63.043, -105.227
668.335, 63.012, -105.638
678.056, 62.982, -105.970
687.919, 62.949, -106.258
697.925, 62.917, -106.494
708.076, 62.887, -106.686
718.376, 62.859, -106.829
728.825, 62.833, -106.930
739.426, 62.808, -106.981
750.181, 62.790, -107.003
761.093, 62.772, -106.989
772.163, 62.768, -106.947
783.394, 62.780, -106.945
794.789, 62.792, -106.895
806.349, 62.808, -106.872
818.078, 62.825, -106.866
829.977, 62.843, -106.856
842.050, 62.863, -106.841
854.297, 62.881, -106.821
866.724, 62.903, -106.772
879.330, 62.930, -106.711
892.120, 62.956, -106.563
905.097, 62.992, -106.481
918.262, 63.039, -106.444
931.618, 63.086, -106.336
945.169, 63.137, -106.258
958.917, 63.188, -106.175
972.864, 63.246, -106.117
987.015, 63.309, -106.088
1001.371, 63.371, -106.062
1015.937, 63.434, -106.057
1030.714, 63.498, -106.067
1045.706, 63.561, -106.092
1060.916, 63.624, -106.130
1076.347, 63.686, -106.171
1092.003, 63.747, -106.220
1107.887, 63.806, -106.268
1124.001, 63.862, -106.297
1140.350, 63.921, -106.336
1156.937, 63.982, -106.372
1173.765, 64.039, -106.391
1190.838, 64.094, -106.399
1208.159, 64.148, -106.401
1225.732, 64.203, -106.374
1243.561, 64.257, -106.328
1261.649, 64.313, -106.262
1280.000, 64.368, -106.177
1298.618, 64.422, -106.068
1317.507, 64.475, -105.906
1336.670, 64.535, -105.762
1356.113, 64.600, -105.598
1375.838, 64.668, -105.402
1395.850, 64.737, -105.193
1416.153, 64.809, -104.969
1436.751, 64.884, -104.727
1457.649, 64.964, -104.475
1478.851, 65.049, -104.211
1500.362, 65.132, -103.918
1522.185, 65.219, -103.609
1544.326, 65.309, -103.279
1566.789, 65.403, -102.930
1589.578, 65.502, -102.563
1612.699, 65.605, -102.174
1636.156, 65.713, -101.763
1659.955, 65.828, -101.343
1684.099, 65.940, -100.907
1708.595, 66.068, -100.449
1733.447, 66.207, -99.978
1758.661, 66.348, -99.495
1784.241, 66.494, -99.009
1810.193, 66.649, -98.514
1836.523, 66.810, -98.014
1863.236, 66.980, -97.507
1890.338, 67.157, -96.997
1917.833, 67.342, -96.474
1945.729, 67.540, -95.961
1974.030, 67.748, -95.443
2002.743, 67.967, -94.939
2031.873, 68.198, -94.447
2061.428, 68.441, -93.974
2091.412, 68.695, -93.516
2121.832, 68.959, -93.079
2152.695, 69.239, -92.672
2184.007, 69.533, -92.294
2215.774, 69.842, -91.954
2248.003, 70.169, -91.666
2280.701, 70.511, -91.430
2313.874, 70.870, -91.264
2347.530, 71.251, -91.184
2381.676, 71.650, -91.208
2416.318, 72.071, -91.354
2451.464, 72.512, -91.638
2487.122, 72.976, -92.088
2523.298, 73.465, -92.749
2560.000, 73.972, -93.652
2597.236, 74.496, -94.855
2635.014, 75.033, -96.405
2673.341, 75.573, -98.347
2712.226, 76.108, -100.733
2751.676, 76.624, -103.539
2791.700, 77.121, -106.964
2832.306, 77.565, -110.848
2873.503, 77.935, -115.177
2915.299, 78.215, -119.866
2957.703, 78.390, -124.779
3000.724, 78.434, -129.755
3044.370, 78.377, -134.548
3088.652, 78.268, -139.086
3133.577, 78.052, -143.177
3179.156, 77.779, -146.793
3225.398, 77.462, -149.902
3272.312, 77.120, -152.509
3319.909, 76.768, -154.634
3368.198, 76.419, -156.307
3417.190, 76.080, -157.560
3466.894, 75.751, -158.401
3517.321, 75.438, -158.826
3568.482, 75.160, -158.784
3620.387, 74.943, -158.198
3673.046, 74.822, -157.057
3726.472, 74.875, -155.636
3780.675, 75.149, -154.669
3835.666, 75.592, -155.142
3891.457, 76.049, -157.620
3948.060, 76.355, -161.896
4005.486, 76.398, -167.323
4063.747, 76.119, -173.027
4122.855, 75.514, -178.018
4182.824, 74.650, 178.589
4243.664, 73.637, 177.368
4305.390, 72.609, 178.509
4368.013, 71.701, -178.147
4431.547, 71.024, -173.053
4496.005, 70.654, -166.879
4561.401, 70.631, -160.368
4627.749, 70.927, -154.220
4695.061, 71.496, -148.985
4763.352, 72.277, -145.024
4832.637, 73.211, -142.534
4902.929, 74.279, -141.652
4974.244, 75.414, -142.802
5046.596, 76.524, -146.371
5120.000, 77.461, -152.496
5194.472, 78.049, -160.763
5270.027, 78.161, -169.961
5346.682, 77.797, -178.443
5424.451, 77.094, 174.984
5503.352, 76.231, 170.636
5583.399, 75.348, 168.252
5664.612, 74.526, 167.390
5747.006, 73.805, 167.639
5830.598, 73.198, 168.675
5915.406, 72.700, 170.257
6001.447, 72.311, 172.197
6088.740, 72.031, 174.341
6177.303, 71.855, 176.555
6267.154, 71.779, 178.704
6358.312, 71.799, -179.343
6450.796, 71.907, -177.732
6544.625, 72.091, -176.629
6639.818, 72.331, -176.232
6736.397, 72.567, -176.759
6834.380, 72.716, -177.589
6933.789, 72.944, -179.057
7034.643, 73.043, 178.177
7136.964, 72.932, 175.145
7240.773, 72.633, 172.572
7346.093, 72.218, 170.986
7452.944, 71.783, 170.530
7561.350, 71.411, 171.032
7671.332, 71.165, 172.099
7782.915, 71.073, 173.172
7896.120, 71.112, 173.630
8010.971, 71.203, 172.975
8127.493, 71.228, 171.057
8245.711, 71.063, 168.256
8365.647, 70.638, 165.464
8487.328, 69.986, 163.667
8610.779, 69.213, 163.477
8736.026, 68.438, 164.975
8863.095, 67.745, 167.912
8992.011, 67.191, 171.957
9122.803, 66.809, 176.855
9255.497, 66.639, -177.567
9390.121, 66.763, -171.579
9526.704, 67.289, -166.300
9665.273, 68.053, -163.816
9805.857, 68.633, -163.577
9948.487, 69.104, -163.141
10093.191, 69.741, -162.713
10240.000, 70.598, -163.764
10388.944, 71.553, -167.711
10540.055, 72.309, -175.449
10693.363, 72.530, 174.053
10848.902, 72.055, 162.886
11006.703, 70.916, 154.137
11166.799, 69.464, 149.252
11329.224, 67.998, 147.684
11494.012, 66.664, 148.678
11661.195, 65.607, 151.276
11830.812, 64.803, 154.127
12002.895, 64.151, 157.129
12177.480, 63.653, 160.093
12354.606, 63.305, 162.637
12534.309, 63.066, 164.427
12716.624, 62.872, 165.206
12901.592, 62.648, 164.899
13089.250, 62.308, 163.729
13279.637, 61.803, 162.260
13472.794, 61.139, 161.234
13668.760, 60.391, 161.168
13867.577, 59.663, 162.191
14069.285, 59.065, 164.053
14273.928, 58.702, 166.129
14481.547, 58.656, 167.253
14692.186, 58.908, 165.304
14905.889, 59.077, 157.395
15122.700, 58.251, 143.795
15342.664, 55.873, 134.038
15565.829, 53.241, 132.358
15792.239, 50.406, 131.991
16021.942, 46.982, 142.695
16254.986, 45.542, 162.175
16491.422, 45.683, 166.065
16731.295, 44.093, 168.467
16974.656, 42.463, 176.105
17221.559, 40.936, -174.334
17472.053, 39.584, -162.231
17726.189, 38.555, -146.730
17984.021, 38.846, -129.612
18245.605, 39.468, -121.336
18510.994, 39.604, -112.481
18780.242, 40.266, -102.650
19053.408, 41.454, -95.442
19330.547, 42.912, -92.583
19611.715, 44.265, -94.868
19896.975, 45.099, -100.468
