* Measurement data measured by REW V5.19
* Source: In 1-2 (MOTU M Series), LINE_IN (Master Volume), L, volume: no control
* Format: 1M Log Swept Sine, 1 sweep at -3.0 dBFS  With no timing reference
* Dated: 24 May, 2023 2:52:52 PM
* REW Settings:
*  C-weighting compensation: Off
*  Target level: 75.0 dB
* Note: ; 
* Measurement: May 24 14:52:52
* Smoothing: 1/48 octave
* Frequency Step: 1/48 octave
* Start Frequency: 10.1 Hz
*
* Freq(Hz), SPL(dB), Phase(degrees)
10.145, 70.450, 54.487
10.293, 70.450, 53.777
10.443, 70.449, 52.824
10.595, 70.447, 51.580
10.749, 70.445, 50.285
10.905, 70.441, 49.305
11.064, 70.436, 48.438
11.225, 70.429, 47.452
11.388, 70.421, 46.419
11.554, 70.412, 45.432
11.722, 70.402, 44.478
11.892, 70.391, 43.546
12.065, 70.378, 42.634
12.241, 70.366, 41.716
12.419, 70.353, 40.804
12.599, 70.339, 39.929
12.782, 70.326, 39.074
12.968, 70.312, 38.217
13.157, 70.299, 37.374
13.348, 70.285, 36.556
13.543, 70.273, 35.751
13.740, 70.262, 34.957
13.939, 70.252, 34.173
14.142, 70.244, 33.398
14.348, 70.239, 32.628
14.557, 70.234, 31.856
14.768, 70.231, 31.078
14.983, 70.228, 30.298
15.201, 70.224, 29.516
15.422, 70.220, 28.733
15.646, 70.214, 27.961
15.874, 70.209, 27.203
16.105, 70.203, 26.462
16.339, 70.200, 25.738
16.577, 70.199, 25.028
16.818, 70.201, 24.325
17.063, 70.207, 23.622
17.311, 70.215, 22.915
17.563, 70.224, 22.203
17.818, 70.235, 21.488
18.077, 70.248, 20.776
18.340, 70.262, 20.069
18.607, 70.279, 19.363
18.877, 70.300, 18.653
19.152, 70.324, 17.928
19.431, 70.350, 17.180
19.713, 70.376, 16.408
20.000, 70.401, 15.618
20.291, 70.425, 14.820
20.586, 70.448, 14.020
20.885, 70.472, 13.216
21.189, 70.497, 12.396
21.497, 70.522, 11.548
21.810, 70.543, 10.675
22.127, 70.557, 9.798
22.449, 70.567, 8.953
22.776, 70.576, 8.170
23.107, 70.595, 7.446
23.443, 70.630, 6.735
23.784, 70.684, 5.958
24.130, 70.749, 5.043
24.481, 70.812, 3.966
24.837, 70.862, 2.767
25.198, 70.892, 1.532
25.565, 70.910, 0.346
25.937, 70.927, -0.762
26.314, 70.954, -1.827
26.697, 70.995, -2.923
27.085, 71.043, -4.112
27.479, 71.088, -5.396
27.879, 71.122, -6.720
28.284, 71.148, -8.017
28.696, 71.175, -9.256
29.113, 71.213, -10.467
29.537, 71.264, -11.728
29.966, 71.320, -13.106
30.402, 71.366, -14.599
30.844, 71.395, -16.135
31.293, 71.408, -17.620
31.748, 71.420, -19.019
32.210, 71.442, -20.385
32.678, 71.474, -21.810
33.154, 71.503, -23.326
33.636, 71.524, -24.889
34.125, 71.538, -26.441
34.621, 71.556, -27.993
35.125, 71.579, -29.603
35.636, 71.597, -31.289
36.154, 71.607, -33.003
36.680, 71.614, -34.706
37.214, 71.626, -36.421
37.755, 71.640, -38.195
38.304, 71.650, -40.027
38.861, 71.654, -41.877
39.427, 71.657, -43.739
40.000, 71.659, -45.630
40.582, 71.659, -47.556
41.172, 71.656, -49.499
41.771, 71.652, -51.462
42.379, 71.647, -53.453
42.995, 71.642, -55.480
43.620, 71.635, -57.551
44.255, 71.623, -59.665
44.898, 71.606, -61.795
45.552, 71.590, -63.934
46.214, 71.573, -66.127
46.886, 71.550, -68.376
47.568, 71.519, -70.621
48.260, 71.492, -72.867
48.962, 71.467, -75.192
49.674, 71.431, -77.568
50.397, 71.392, -79.920
51.130, 71.362, -82.300
51.874, 71.331, -84.768
52.628, 71.295, -87.276
53.394, 71.260, -89.844
54.170, 71.214, -92.515
54.958, 71.149, -95.161
55.758, 71.085, -97.719
56.569, 71.033, -100.318
57.391, 70.980, -103.000
58.226, 70.924, -105.726
59.073, 70.864, -108.508
59.932, 70.797, -111.316
60.804, 70.730, -114.138
61.688, 70.661, -117.015
62.586, 70.584, -119.935
63.496, 70.502, -122.868
64.420, 70.422, -125.821
65.357, 70.345, -128.860
66.307, 70.260, -131.970
67.272, 70.173, -135.087
68.250, 70.086, -138.253
69.243, 69.993, -141.461
70.250, 69.894, -144.650
71.272, 69.808, -147.913
72.309, 69.699, -151.437
73.360, 69.555, -154.761
74.427, 69.451, -158.116
75.510, 69.295, -161.531
76.608, 69.180, -164.356
77.723, 69.106, -167.578
78.853, 68.949, -170.437
80.000, 68.858, -172.818
81.164, 68.779, -175.602
82.344, 68.627, -178.250
83.542, 68.540, 179.359
84.757, 68.447, 176.163
85.990, 68.227, 173.288
87.241, 68.052, 171.145
88.510, 67.964, 168.881
89.797, 67.867, 166.054
91.103, 67.694, 163.012
92.428, 67.490, 160.086
93.773, 67.307, 157.139
95.137, 67.135, 154.090
96.520, 66.969, 151.248
97.924, 66.843, 148.461
99.349, 66.694, 145.568
100.794, 66.517, 142.760
102.260, 66.338, 139.912
103.747, 66.157, 136.936
105.256, 65.973, 133.922
106.787, 65.786, 130.941
108.340, 65.591, 128.032
109.916, 65.398, 125.113
111.515, 65.185, 122.096
113.137, 64.976, 119.134
114.783, 64.773, 116.128
116.452, 64.570, 113.113
118.146, 64.340, 109.985
119.865, 64.086, 107.161
121.608, 63.852, 104.478
123.377, 63.648, 101.975
125.171, 63.430, 99.618
126.992, 63.205, 97.525
128.839, 62.989, 95.521
130.713, 62.774, 93.412
132.615, 62.562, 91.358
134.543, 62.366, 89.281
136.500, 62.157, 87.088
138.486, 61.894, 85.217
140.500, 61.684, 83.158
142.544, 61.401, 80.800
144.617, 61.145, 79.269
146.721, 61.020, 77.580
148.855, 60.809, 75.410
151.020, 60.558, 73.864
153.217, 60.319, 72.088
155.445, 60.068, 70.382
157.706, 59.855, 68.823
160.000, 59.659, 67.155
162.327, 59.447, 65.546
164.688, 59.193, 64.169
167.084, 58.994, 63.027
169.514, 58.793, 61.845
171.980, 58.647, 61.208
174.481, 58.553, 60.484
177.019, 58.467, 59.384
179.594, 58.415, 58.364
182.206, 58.419, 57.317
184.856, 58.486, 56.211
187.545, 58.549, 54.852
190.273, 58.642, 53.228
193.041, 58.714, 51.274
195.849, 58.792, 49.115
198.697, 58.842, 46.593
201.587, 58.903, 43.919
204.520, 58.929, 41.215
207.494, 58.945, 38.494
210.512, 58.928, 35.719
213.574, 58.910, 33.070
216.681, 58.891, 30.421
219.833, 58.866, 27.849
223.030, 58.835, 25.241
226.274, 58.805, 22.729
229.565, 58.821, 20.235
232.905, 58.832, 17.579
236.292, 58.835, 14.906
239.729, 58.850, 12.289
243.216, 58.863, 9.535
246.754, 58.879, 6.733
250.343, 58.910, 3.905
253.984, 58.940, 1.029
257.678, 58.979, -1.867
261.426, 59.020, -4.817
265.229, 59.069, -7.793
269.087, 59.139, -10.843
273.001, 59.210, -14.035
276.972, 59.273, -17.354
281.000, 59.342, -20.692
285.088, 59.416, -24.184
289.234, 59.480, -27.829
293.441, 59.545, -31.531
297.710, 59.603, -35.259
302.040, 59.661, -39.082
306.433, 59.714, -42.967
310.890, 59.761, -46.888
315.412, 59.806, -50.906
320.000, 59.838, -54.949
324.655, 59.869, -59.079
329.377, 59.894, -63.239
334.168, 59.915, -67.374
339.028, 59.931, -71.588
343.959, 59.945, -75.821
348.962, 59.958, -80.098
354.038, 59.970, -84.433
359.188, 59.974, -88.771
364.412, 59.973, -93.119
369.713, 59.970, -97.506
375.090, 59.968, -101.942
380.546, 59.964, -106.356
386.081, 59.961, -110.853
391.697, 59.951, -115.364
397.395, 59.934, -119.918
403.175, 59.918, -124.499
409.039, 59.892, -129.113
414.989, 59.863, -133.712
421.025, 59.830, -138.338
427.149, 59.790, -142.935
433.362, 59.743, -147.488
439.665, 59.695, -151.989
446.060, 59.647, -156.460
452.548, 59.601, -160.918
459.131, 59.563, -165.255
465.809, 59.527, -169.542
472.584, 59.499, -173.796
479.458, 59.493, -177.962
486.432, 59.506, 177.944
493.507, 59.552, 173.855
500.686, 59.612, 169.766
507.968, 59.721, 165.564
515.357, 59.859, 161.225
522.853, 60.026, 156.695
530.458, 60.212, 151.880
538.174, 60.396, 146.755
546.002, 60.574, 141.333
553.943, 60.732, 135.716
562.001, 60.867, 129.924
570.175, 60.974, 124.046
578.469, 61.056, 118.139
586.883, 61.119, 112.257
595.419, 61.169, 106.413
604.080, 61.214, 100.611
612.866, 61.255, 94.866
621.780, 61.301, 89.166
630.824, 61.355, 83.484
640.000, 61.419, 77.811
649.309, 61.492, 72.096
658.753, 61.575, 66.317
668.335, 61.663, 60.458
678.056, 61.759, 54.533
687.919, 61.852, 48.490
697.925, 61.944, 42.402
708.076, 62.034, 36.220
718.376, 62.118, 30.000
728.825, 62.198, 23.743
739.426, 62.274, 17.484
750.181, 62.349, 11.202
761.093, 62.429, 4.889
772.163, 62.512, -1.422
783.394, 62.597, -7.778
794.789, 62.682, -14.167
806.349, 62.771, -20.585
818.078, 62.865, -27.039
829.977, 62.961, -33.523
842.050, 63.062, -40.080
854.297, 63.165, -46.666
866.724, 63.269, -53.293
879.330, 63.377, -59.982
892.120, 63.486, -66.692
905.097, 63.599, -73.450
918.262, 63.715, -80.276
931.618, 63.830, -87.127
945.169, 63.948, -94.028
958.917, 64.070, -100.985
972.864, 64.190, -107.959
987.015, 64.315, -114.983
1001.371, 64.443, -122.051
1015.937, 64.573, -129.162
1030.714, 64.707, -136.318
1045.706, 64.846, -143.548
1060.916, 64.983, -150.817
1076.347, 65.120, -158.150
1092.003, 65.261, -165.536
1107.887, 65.401, -172.981
1124.001, 65.537, 179.533
1140.350, 65.675, 172.001
1156.937, 65.812, 164.426
1173.765, 65.947, 156.820
1190.838, 66.081, 149.176
1208.159, 66.216, 141.504
1225.732, 66.351, 133.790
1243.561, 66.484, 126.066
1261.649, 66.616, 118.299
1280.000, 66.749, 110.517
1298.618, 66.883, 102.692
1317.507, 67.014, 94.857
1336.670, 67.144, 86.985
1356.113, 67.275, 79.096
1375.838, 67.405, 71.174
1395.850, 67.531, 63.250
1416.153, 67.653, 55.303
1436.751, 67.776, 47.354
1457.649, 67.901, 39.402
1478.851, 68.021, 31.443
1500.362, 68.133, 23.514
1522.185, 68.250, 15.575
1544.326, 68.365, 7.663
1566.789, 68.487, -0.248
1589.578, 68.601, -8.126
1612.699, 68.713, -15.984
1636.156, 68.831, -23.824
1659.955, 68.948, -31.627
1684.099, 69.074, -39.411
1708.595, 69.196, -47.164
1733.447, 69.315, -54.875
1758.661, 69.445, -62.565
1784.241, 69.576, -70.214
1810.193, 69.712, -77.827
1836.523, 69.861, -85.443
1863.236, 69.998, -92.971
1890.338, 70.145, -100.506
1917.833, 70.301, -108.006
1945.729, 70.458, -115.465
1974.030, 70.623, -122.897
2002.743, 70.799, -130.314
2031.873, 70.970, -137.672
2061.428, 71.149, -145.021
2091.412, 71.336, -152.337
2121.832, 71.529, -159.624
2152.695, 71.728, -166.884
2184.007, 71.941, -174.119
2215.774, 72.159, 178.638
2248.003, 72.366, 171.451
2280.701, 72.588, 164.245
2313.874, 72.816, 157.046
2347.530, 73.043, 149.853
2381.676, 73.267, 142.680
2416.318, 73.492, 135.580
2451.464, 73.731, 128.533
2487.122, 73.962, 121.573
2523.298, 74.209, 114.561
2560.000, 74.458, 107.534
2597.236, 74.705, 100.490
2635.014, 74.940, 93.463
2673.341, 75.170, 86.445
2712.226, 75.391, 79.459
2751.676, 75.607, 72.498
2791.700, 75.797, 65.612
2832.306, 75.977, 58.774
2873.503, 76.143, 52.020
2915.299, 76.291, 45.362
2957.703, 76.422, 38.814
3000.724, 76.532, 32.402
3044.370, 76.624, 26.151
3088.652, 76.697, 20.091
3133.577, 76.763, 14.235
3179.156, 76.803, 8.625
3225.398, 76.826, 3.258
3272.312, 76.846, -1.855
3319.909, 76.860, -6.714
3368.198, 76.867, -11.316
3417.190, 76.866, -15.663
3466.894, 76.853, -19.733
3517.321, 76.834, -23.509
3568.482, 76.804, -26.951
3620.387, 76.773, -30.023
3673.046, 76.754, -32.740
3726.472, 76.728, -35.076
3780.675, 76.720, -37.123
3835.666, 76.725, -38.874
3891.457, 76.739, -40.327
3948.060, 76.760, -41.486
4005.486, 76.794, -42.381
4063.747, 76.823, -42.968
4122.855, 76.861, -43.231
4182.824, 76.907, -43.151
4243.664, 76.965, -42.772
4305.390, 77.030, -42.098
4368.013, 77.102, -41.091
4431.547, 77.185, -39.750
4496.005, 77.267, -38.057
4561.401, 77.369, -36.030
4627.749, 77.488, -33.672
4695.061, 77.627, -31.029
4763.352, 77.786, -28.170
4832.637, 77.954, -25.145
4902.929, 78.125, -21.966
4974.244, 78.280, -18.602
5046.596, 78.429, -15.091
5120.000, 78.557, -11.442
5194.472, 78.650, -7.654
5270.027, 78.689, -3.689
5346.682, 78.657, 0.517
5424.451, 78.540, 5.087
5503.352, 78.341, 10.175
5583.399, 78.019, 15.990
5664.612, 77.613, 22.639
5747.006, 77.136, 30.286
5830.598, 76.601, 39.048
5915.406, 76.027, 48.994
6001.447, 75.439, 60.142
6088.740, 74.855, 72.489
6177.303, 74.292, 85.997
6267.154, 73.761, 100.603
6358.312, 73.266, 116.250
6450.796, 72.813, 132.880
6544.625, 72.410, 150.441
6639.818, 72.059, 168.878
6736.397, 71.758, -171.856
6834.380, 71.519, -151.829
6933.789, 71.339, -131.116
7034.643, 71.220, -109.823
7136.964, 71.158, -88.055
7240.773, 71.141, -65.947
7346.093, 71.160, -43.659
7452.944, 71.134, -21.272
7561.350, 71.049, 1.138
7671.332, 70.840, 23.700
7782.915, 70.450, 46.742
7896.120, 69.853, 70.735
8010.971, 69.051, 96.190
8127.493, 68.071, 123.565
8245.711, 66.960, 153.179
8365.647, 65.776, -174.819
8487.328, 64.576, -140.453
8610.779, 63.403, -103.858
8736.026, 62.277, -65.141
8863.095, 61.215, -24.381
8992.011, 60.216, 18.380
9122.803, 59.316, 62.996
9255.497, 58.509, 109.326
9390.121, 57.799, 157.245
9526.704, 57.180, -153.354
9665.273, 56.638, -102.494
9805.857, 56.161, -50.159
9948.487, 55.737, 3.730
10093.191, 55.367, 59.244
10240.000, 55.049, 116.459
10388.944, 54.789, 175.465
10540.055, 54.617, -123.676
10693.363, 54.565, -61.050
10848.902, 54.636, 3.197
11006.703, 54.835, 69.050
11166.799, 55.120, 136.515
11329.224, 55.536, -154.457
11494.012, 56.105, -83.934
11661.195, 56.842, -12.049
11830.812, 57.771, 60.971
12002.895, 58.921, 134.712
12177.480, 60.314, -151.591
12354.606, 61.897, -79.222
12534.309, 63.419, -9.912
12716.624, 64.320, 55.683
12901.592, 64.054, 121.113
13089.250, 62.701, -167.368
13279.637, 60.928, -87.215
13472.794, 59.287, -0.287
13668.760, 57.890, 91.582
13867.577, 56.739, -172.381
14069.285, 55.834, -72.792
14273.928, 55.172, 29.962
14481.547, 54.745, 135.648
14692.186, 54.549, -115.905
14905.889, 54.574, -4.848
15122.700, 54.851, 108.620
15342.664, 55.425, -135.765
15565.829, 56.364, -18.481
15792.239, 57.769, 99.389
16021.942, 59.658, -145.021
16254.986, 61.186, -36.234
16491.422, 61.618, 71.274
16731.295, 60.828, 176.920
16974.656, 58.043, -66.402
17221.559, 54.918, 64.788
17472.053, 52.254, -154.801
17726.189, 50.080, -8.024
17984.021, 48.347, 142.958
18245.605, 47.100, -86.277
18510.994, 46.174, -17.918
18780.242, 45.927, 33.084
19053.408, 46.514, 82.124
19330.547, 47.806, 125.841
19611.715, 48.980, 160.531
19896.975, 49.092, -174.436
