* Measurement data measured by REW V5.19
* Source: ASIO MOTU M Series, In 1
* Format: 1M Log Swept Sine, 1 sweep at -3.0 dBFS  With no timing reference
* Dated: 10 Mar, 2023 2:32:16 PM
* REW Settings:
*  C-weighting compensation: Off
*  Target level: 75.0 dB
* Note: ; 
* Measurement: Mar 10 14:32:16
* Smoothing: 1/48 octave
* Frequency Step: 1/48 octave
* Start Frequency: 10.1 Hz
*
* Freq(Hz), SPL(dB), Phase(degrees)
10.145, 68.856, 71.539
10.293, 68.898, 70.878
10.443, 68.941, 69.989
10.595, 69.008, 68.823
10.749, 69.077, 67.605
10.905, 69.128, 66.674
11.064, 69.171, 65.842
11.225, 69.220, 64.897
11.388, 69.269, 63.906
11.554, 69.314, 62.958
11.722, 69.357, 62.039
11.892, 69.398, 61.141
12.065, 69.438, 60.262
12.241, 69.477, 59.380
12.419, 69.517, 58.503
12.599, 69.556, 57.660
12.782, 69.595, 56.832
12.968, 69.634, 55.996
13.157, 69.674, 55.164
13.348, 69.713, 54.343
13.543, 69.752, 53.522
13.740, 69.790, 52.698
13.939, 69.827, 51.875
14.142, 69.862, 51.056
14.348, 69.896, 50.242
14.557, 69.927, 49.436
14.768, 69.956, 48.639
14.983, 69.985, 47.857
15.201, 70.012, 47.090
15.422, 70.039, 46.337
15.646, 70.066, 45.596
15.874, 70.094, 44.864
16.105, 70.122, 44.137
16.339, 70.150, 43.411
16.577, 70.178, 42.682
16.818, 70.206, 41.951
17.063, 70.231, 41.220
17.311, 70.255, 40.494
17.563, 70.277, 39.776
17.818, 70.298, 39.070
18.077, 70.318, 38.379
18.340, 70.339, 37.698
18.607, 70.359, 37.025
18.877, 70.381, 36.354
19.152, 70.402, 35.682
19.431, 70.422, 35.007
19.713, 70.441, 34.335
20.000, 70.458, 33.669
20.291, 70.474, 33.012
20.586, 70.489, 32.366
20.885, 70.504, 31.727
21.189, 70.520, 31.090
21.497, 70.534, 30.454
21.810, 70.547, 29.821
22.127, 70.558, 29.197
22.449, 70.567, 28.589
22.776, 70.577, 28.000
23.107, 70.588, 27.426
23.443, 70.602, 26.854
23.784, 70.617, 26.274
24.130, 70.632, 25.680
24.481, 70.645, 25.076
24.837, 70.656, 24.473
25.198, 70.664, 23.880
25.565, 70.672, 23.301
25.937, 70.679, 22.730
26.314, 70.688, 22.161
26.697, 70.695, 21.590
27.085, 70.702, 21.020
27.479, 70.707, 20.457
27.879, 70.711, 19.905
28.284, 70.715, 19.362
28.696, 70.720, 18.822
29.113, 70.725, 18.282
29.537, 70.729, 17.743
29.966, 70.732, 17.207
30.402, 70.734, 16.675
30.844, 70.736, 16.148
31.293, 70.737, 15.624
31.748, 70.737, 15.104
32.210, 70.737, 14.592
32.678, 70.736, 14.087
33.154, 70.736, 13.588
33.636, 70.736, 13.093
34.125, 70.736, 12.597
34.621, 70.736, 12.097
35.125, 70.735, 11.596
35.636, 70.734, 11.094
36.154, 70.731, 10.594
36.680, 70.728, 10.094
37.214, 70.724, 9.596
37.755, 70.718, 9.101
38.304, 70.711, 8.610
38.861, 70.703, 8.125
39.427, 70.692, 7.658
40.000, 70.682, 7.217
40.582, 70.675, 6.797
41.172, 70.671, 6.380
41.771, 70.669, 5.955
42.379, 70.669, 5.525
42.995, 70.671, 5.084
43.620, 70.674, 4.615
44.255, 70.672, 4.120
44.898, 70.667, 3.627
45.552, 70.659, 3.145
46.214, 70.652, 2.655
46.886, 70.642, 2.148
47.568, 70.627, 1.641
48.260, 70.609, 1.152
48.962, 70.592, 0.684
49.674, 70.577, 0.219
50.397, 70.563, -0.266
51.130, 70.546, -0.748
51.874, 70.529, -1.204
52.628, 70.516, -1.666
53.394, 70.500, -2.126
54.170, 70.489, -2.563
54.958, 70.483, -3.078
55.758, 70.458, -3.669
56.569, 70.414, -4.130
57.391, 70.385, -4.497
58.226, 70.363, -4.960
59.073, 70.327, -5.463
59.932, 70.284, -5.926
60.804, 70.238, -6.386
61.688, 70.188, -6.843
62.586, 70.131, -7.295
63.496, 70.065, -7.692
64.420, 69.998, -8.026
65.357, 69.923, -8.322
66.307, 69.840, -8.487
67.272, 69.758, -8.517
68.250, 69.674, -8.354
69.243, 69.618, -7.937
70.250, 69.602, -7.468
71.272, 69.627, -6.943
72.309, 69.714, -6.643
73.360, 69.806, -6.711
74.427, 69.902, -6.965
75.510, 69.983, -7.539
76.608, 70.029, -8.068
77.723, 70.094, -8.669
78.853, 70.119, -9.507
80.000, 70.115, -10.185
81.164, 70.109, -10.952
82.344, 70.054, -11.720
83.542, 69.990, -12.213
84.757, 69.944, -12.647
85.990, 69.901, -13.095
87.241, 69.850, -13.537
88.510, 69.772, -13.912
89.797, 69.665, -13.809
91.103, 69.638, -13.232
92.428, 69.694, -12.892
93.773, 69.777, -12.920
95.137, 69.867, -13.259
96.520, 69.940, -13.873
97.924, 69.991, -14.574
99.349, 70.023, -15.339
100.794, 70.037, -16.101
102.260, 70.037, -16.863
103.747, 70.026, -17.611
105.256, 70.006, -18.339
106.787, 69.979, -19.035
108.340, 69.947, -19.690
109.916, 69.910, -20.345
111.515, 69.868, -20.959
113.137, 69.825, -21.563
114.783, 69.777, -22.155
116.452, 69.728, -22.745
118.146, 69.675, -23.332
119.865, 69.610, -23.878
121.608, 69.564, -24.249
123.377, 69.529, -24.747
125.171, 69.478, -25.213
126.992, 69.431, -25.605
128.839, 69.389, -26.058
130.713, 69.347, -26.536
132.615, 69.304, -27.033
134.543, 69.257, -27.541
136.500, 69.204, -28.046
138.486, 69.144, -28.548
140.500, 69.080, -29.032
142.544, 69.014, -29.497
144.617, 68.941, -29.923
146.721, 68.866, -30.309
148.855, 68.787, -30.599
151.020, 68.711, -30.803
153.217, 68.637, -30.923
155.445, 68.577, -30.910
157.706, 68.547, -30.835
160.000, 68.550, -30.821
162.327, 68.574, -30.982
164.688, 68.601, -31.372
167.084, 68.617, -31.940
169.514, 68.618, -32.625
171.980, 68.602, -33.350
174.481, 68.572, -34.066
177.019, 68.530, -34.753
179.594, 68.481, -35.425
182.206, 68.426, -36.069
184.856, 68.365, -36.694
187.545, 68.302, -37.279
190.273, 68.233, -37.857
193.041, 68.162, -38.394
195.849, 68.092, -38.911
198.697, 68.019, -39.430
201.587, 67.942, -39.944
204.520, 67.867, -40.452
207.494, 67.793, -40.945
210.512, 67.716, -41.418
213.574, 67.638, -41.878
216.681, 67.562, -42.348
219.833, 67.484, -42.811
223.030, 67.403, -43.269
226.274, 67.318, -43.717
229.565, 67.237, -44.164
232.905, 67.156, -44.612
236.292, 67.069, -45.048
239.729, 66.981, -45.476
243.216, 66.889, -45.891
246.754, 66.794, -46.285
250.343, 66.697, -46.667
253.984, 66.598, -47.033
257.678, 66.495, -47.388
261.426, 66.390, -47.726
265.229, 66.283, -47.994
269.087, 66.177, -48.226
273.001, 66.073, -48.372
276.972, 65.976, -48.516
281.000, 65.894, -48.631
285.088, 65.836, -48.753
289.234, 65.774, -49.086
293.441, 65.700, -49.555
297.710, 65.605, -50.028
302.040, 65.484, -50.436
306.433, 65.359, -50.725
310.890, 65.236, -50.969
315.412, 65.111, -51.146
320.000, 64.988, -51.288
324.655, 64.865, -51.421
329.377, 64.736, -51.517
334.168, 64.610, -51.567
339.028, 64.473, -51.566
343.959, 64.334, -51.508
348.962, 64.192, -51.402
354.038, 64.046, -51.211
359.188, 63.899, -50.900
364.412, 63.769, -50.491
369.713, 63.621, -49.968
375.090, 63.492, -49.217
380.546, 63.396, -48.250
386.081, 63.339, -47.224
391.697, 63.305, -46.207
397.395, 63.315, -45.229
403.175, 63.358, -44.408
409.039, 63.425, -43.736
414.989, 63.505, -43.310
421.025, 63.583, -43.081
427.149, 63.655, -42.994
433.362, 63.713, -43.004
439.665, 63.762, -43.091
446.060, 63.801, -43.216
452.548, 63.832, -43.362
459.131, 63.861, -43.546
465.809, 63.884, -43.773
472.584, 63.893, -44.024
479.458, 63.889, -44.300
486.432, 63.871, -44.506
493.507, 63.844, -44.697
500.686, 63.805, -44.724
507.968, 63.785, -44.647
515.357, 63.767, -44.477
522.853, 63.765, -44.241
530.458, 63.779, -43.972
538.174, 63.812, -43.663
546.002, 63.863, -43.377
553.943, 63.937, -43.193
562.001, 64.024, -43.119
570.175, 64.118, -43.188
578.469, 64.215, -43.390
586.883, 64.306, -43.721
595.419, 64.390, -44.155
604.080, 64.463, -44.674
612.866, 64.522, -45.247
621.780, 64.566, -45.845
630.824, 64.597, -46.438
640.000, 64.619, -47.011
649.309, 64.633, -47.543
658.753, 64.643, -48.047
668.335, 64.648, -48.498
678.056, 64.651, -48.899
687.919, 64.654, -49.272
697.925, 64.658, -49.632
708.076, 64.661, -49.966
718.376, 64.663, -50.296
728.825, 64.667, -50.608
739.426, 64.670, -50.886
750.181, 64.674, -51.130
761.093, 64.680, -51.339
772.163, 64.692, -51.518
783.394, 64.709, -51.678
794.789, 64.729, -51.830
806.349, 64.754, -51.977
818.078, 64.783, -52.122
829.977, 64.815, -52.262
842.050, 64.850, -52.393
854.297, 64.889, -52.514
866.724, 64.932, -52.625
879.330, 64.980, -52.724
892.120, 65.035, -52.819
905.097, 65.097, -52.909
918.262, 65.169, -53.022
931.618, 65.248, -53.152
945.169, 65.330, -53.313
958.917, 65.417, -53.514
972.864, 65.508, -53.758
987.015, 65.599, -54.048
1001.371, 65.688, -54.366
1015.937, 65.778, -54.735
1030.714, 65.868, -55.135
1045.706, 65.955, -55.556
1060.916, 66.038, -55.989
1076.347, 66.120, -56.420
1092.003, 66.200, -56.851
1107.887, 66.279, -57.277
1124.001, 66.359, -57.693
1140.350, 66.443, -58.117
1156.937, 66.524, -58.523
1173.765, 66.606, -58.925
1190.838, 66.690, -59.325
1208.159, 66.776, -59.731
1225.732, 66.861, -60.129
1243.561, 66.951, -60.548
1261.649, 67.045, -60.988
1280.000, 67.141, -61.448
1298.618, 67.237, -61.934
1317.507, 67.332, -62.446
1336.670, 67.424, -62.977
1356.113, 67.512, -63.518
1375.838, 67.596, -64.061
1395.850, 67.677, -64.599
1416.153, 67.754, -65.119
1436.751, 67.829, -65.616
1457.649, 67.903, -66.085
1478.851, 67.976, -66.525
1500.362, 68.052, -66.940
1522.185, 68.130, -67.329
1544.326, 68.207, -67.687
1566.789, 68.285, -68.024
1589.578, 68.364, -68.332
1612.699, 68.447, -68.612
1636.156, 68.532, -68.863
1659.955, 68.620, -69.079
1684.099, 68.714, -69.264
1708.595, 68.813, -69.421
1733.447, 68.919, -69.548
1758.661, 69.032, -69.648
1784.241, 69.154, -69.729
1810.193, 69.284, -69.797
1836.523, 69.420, -69.848
1863.236, 69.567, -69.899
1890.338, 69.728, -69.952
1917.833, 69.899, -70.009
1945.729, 70.082, -70.079
1974.030, 70.276, -70.169
2002.743, 70.482, -70.286
2031.873, 70.699, -70.438
2061.428, 70.930, -70.629
2091.412, 71.176, -70.877
2121.832, 71.432, -71.176
2152.695, 71.699, -71.543
2184.007, 71.977, -71.987
2215.774, 72.268, -72.521
2248.003, 72.570, -73.156
2280.701, 72.883, -73.907
2313.874, 73.206, -74.786
2347.530, 73.538, -75.811
2381.676, 73.877, -77.000
2416.318, 74.220, -78.370
2451.464, 74.564, -79.938
2487.122, 74.905, -81.715
2523.298, 75.236, -83.707
2560.000, 75.552, -85.894
2597.236, 75.854, -88.238
2635.014, 76.147, -90.801
2673.341, 76.413, -93.642
2712.226, 76.638, -96.677
2751.676, 76.821, -99.845
2791.700, 76.959, -103.110
2832.306, 77.053, -106.435
2873.503, 77.098, -109.777
2915.299, 77.096, -113.093
2957.703, 77.045, -116.336
3000.724, 76.948, -119.460
3044.370, 76.810, -122.418
3088.652, 76.634, -125.169
3133.577, 76.430, -127.677
3179.156, 76.210, -129.925
3225.398, 75.980, -131.902
3272.312, 75.751, -133.609
3319.909, 75.530, -135.067
3368.198, 75.317, -136.291
3417.190, 75.117, -137.306
3466.894, 74.940, -138.150
3517.321, 74.789, -138.853
3568.482, 74.665, -139.448
3620.387, 74.569, -139.969
3673.046, 74.504, -140.449
3726.472, 74.468, -140.923
3780.675, 74.465, -141.427
3835.666, 74.497, -142.001
3891.457, 74.563, -142.691
3948.060, 74.658, -143.558
4005.486, 74.785, -144.679
4063.747, 74.936, -146.136
4122.855, 75.102, -148.019
4182.824, 75.266, -150.423
4243.664, 75.402, -153.429
4305.390, 75.472, -157.061
4368.013, 75.430, -161.240
4431.547, 75.232, -165.712
4496.005, 74.841, -169.974
4561.401, 74.267, -173.322
4627.749, 73.590, -175.057
4695.061, 72.974, -174.928
4763.352, 72.596, -173.566
4832.637, 72.518, -172.327
4902.929, 72.617, -172.351
4974.244, 72.709, -173.835
5046.596, 72.683, -176.233
5120.000, 72.511, -178.837
5194.472, 72.222, 178.835
5270.027, 71.859, 177.022
5346.682, 71.461, 175.799
5424.451, 71.063, 175.130
5503.352, 70.688, 174.946
5583.399, 70.350, 175.164
5664.612, 70.063, 175.700
5747.006, 69.830, 176.481
5830.598, 69.657, 177.434
5915.406, 69.547, 178.492
6001.447, 69.502, 179.588
6088.740, 69.521, -179.336
6177.303, 69.615, -178.346
6267.154, 69.783, -177.532
6358.312, 70.023, -176.978
6450.796, 70.334, -176.783
6544.625, 70.712, -177.064
6639.818, 71.151, -177.961
6736.397, 71.631, -179.621
6834.380, 72.123, 177.820
6933.789, 72.591, 174.267
7034.643, 72.990, 169.711
7136.964, 73.267, 164.271
7240.773, 73.383, 158.224
7346.093, 73.318, 151.957
7452.944, 73.083, 145.840
7561.350, 72.706, 140.097
7671.332, 72.215, 134.782
7782.915, 71.617, 129.869
7896.120, 70.895, 125.364
8010.971, 70.027, 121.434
8127.493, 68.988, 118.433
8245.711, 67.742, 117.087
8365.647, 66.381, 118.682
8487.328, 65.167, 123.383
8610.779, 64.314, 130.247
8736.026, 63.904, 137.890
8863.095, 63.889, 145.165
8992.011, 64.162, 151.452
9122.803, 64.622, 156.538
9255.497, 65.209, 160.385
9390.121, 65.876, 162.978
9526.704, 66.583, 164.273
9665.273, 67.280, 164.219
9805.857, 67.908, 162.836
9948.487, 68.399, 160.309
10093.191, 68.697, 157.047
10240.000, 68.782, 153.624
10388.944, 68.672, 150.592
10540.055, 68.423, 148.339
10693.363, 68.109, 147.040
10848.902, 67.773, 146.444
11006.703, 67.417, 146.512
11166.799, 67.058, 147.239
11329.224, 66.707, 148.696
11494.012, 66.394, 151.054
11661.195, 66.184, 154.415
11830.812, 66.182, 158.469
12002.895, 66.455, 162.409
12177.480, 67.000, 165.133
12354.606, 67.670, 165.574
12534.309, 68.237, 163.501
12716.624, 68.519, 159.632
12901.592, 68.445, 155.316
13089.250, 68.078, 151.791
13279.637, 67.555, 149.515
13472.794, 66.979, 148.140
13668.760, 66.332, 147.203
13867.577, 65.515, 147.207
14069.285, 64.576, 149.751
14273.928, 63.898, 155.303
14481.547, 63.834, 161.407
14692.186, 64.251, 164.649
14905.889, 64.626, 163.424
15122.700, 64.455, 159.421
15342.664, 63.661, 156.283
15565.829, 62.554, 155.924
15792.239, 61.405, 158.063
16021.942, 60.303, 162.189
16254.986, 59.301, 168.663
16491.422, 58.802, 177.290
16731.295, 58.802, -175.460
16974.656, 59.104, -170.465
17221.559, 59.290, -169.122
17472.053, 58.944, -168.349
17726.189, 58.356, -164.739
17984.021, 58.016, -158.642
18245.605, 58.163, -152.144
18510.994, 58.813, -147.739
18780.242, 59.648, -147.872
19053.408, 60.109, -153.078
19330.547, 59.699, -160.186
19611.715, 58.449, -163.837
19896.975, 57.028, -161.956
