* Measurement data measured by REW V5.19
* Source: ASIO MOTU M Series, In 1
* Format: 1M Log Swept Sine, 1 sweep at -3.0 dBFS  With no timing reference
* Dated: 10 Mar, 2023 6:41:01 PM
* REW Settings:
*  C-weighting compensation: Off
*  Target level: 75.0 dB
* Note: ; 
* Measurement: Mar 10 18:41:01
* Smoothing: 1/48 octave
* Frequency Step: 1/48 octave
* Start Frequency: 10.1 Hz
*
* Freq(Hz), SPL(dB), Phase(degrees)
10.145, 72.439, 39.454
10.293, 72.442, 38.859
10.443, 72.445, 38.062
10.595, 72.450, 37.024
10.749, 72.456, 35.945
10.905, 72.460, 35.130
11.064, 72.464, 34.407
11.225, 72.467, 33.576
11.388, 72.470, 32.699
11.554, 72.471, 31.854
11.722, 72.471, 31.028
11.892, 72.469, 30.217
12.065, 72.465, 29.417
12.241, 72.460, 28.613
12.419, 72.454, 27.814
12.599, 72.446, 27.049
12.782, 72.438, 26.301
12.968, 72.430, 25.551
13.157, 72.423, 24.807
13.348, 72.415, 24.075
13.543, 72.408, 23.341
13.740, 72.399, 22.603
13.939, 72.389, 21.864
14.142, 72.377, 21.124
14.348, 72.363, 20.390
14.557, 72.346, 19.664
14.768, 72.326, 18.949
14.983, 72.306, 18.254
15.201, 72.284, 17.576
15.422, 72.262, 16.913
15.646, 72.241, 16.262
15.874, 72.220, 15.618
16.105, 72.200, 14.976
16.339, 72.180, 14.332
16.577, 72.159, 13.688
16.818, 72.136, 13.044
17.063, 72.112, 12.405
17.311, 72.087, 11.773
17.563, 72.060, 11.151
17.818, 72.032, 10.539
18.077, 72.004, 9.937
18.340, 71.975, 9.343
18.607, 71.946, 8.756
18.877, 71.916, 8.178
19.152, 71.885, 7.610
19.431, 71.853, 7.054
19.713, 71.820, 6.512
20.000, 71.788, 5.984
20.291, 71.756, 5.468
20.586, 71.725, 4.958
20.885, 71.694, 4.451
21.189, 71.663, 3.940
21.497, 71.630, 3.427
21.810, 71.595, 2.918
22.127, 71.556, 2.427
22.449, 71.515, 1.965
22.776, 71.475, 1.536
23.107, 71.439, 1.128
23.443, 71.407, 0.719
23.784, 71.378, 0.285
24.130, 71.348, -0.187
24.481, 71.311, -0.685
24.837, 71.267, -1.177
25.198, 71.216, -1.629
25.565, 71.164, -2.025
25.937, 71.117, -2.378
26.314, 71.076, -2.725
26.697, 71.039, -3.096
27.085, 71.000, -3.497
27.479, 70.957, -3.908
27.879, 70.909, -4.297
28.284, 70.860, -4.650
28.696, 70.814, -4.976
29.113, 70.772, -5.299
29.537, 70.731, -5.638
29.966, 70.687, -5.986
30.402, 70.640, -6.325
30.844, 70.591, -6.636
31.293, 70.544, -6.919
31.748, 70.499, -7.190
32.210, 70.456, -7.467
32.678, 70.413, -7.757
33.154, 70.367, -8.048
33.636, 70.319, -8.324
34.125, 70.271, -8.584
34.621, 70.224, -8.836
35.125, 70.178, -9.089
35.636, 70.132, -9.347
36.154, 70.084, -9.606
36.680, 70.034, -9.858
37.214, 69.984, -10.090
37.755, 69.936, -10.304
38.304, 69.892, -10.521
38.861, 69.847, -10.762
39.427, 69.798, -11.010
40.000, 69.744, -11.225
40.582, 69.692, -11.397
41.172, 69.645, -11.559
41.771, 69.600, -11.739
42.379, 69.551, -11.926
42.995, 69.499, -12.085
43.620, 69.450, -12.215
44.255, 69.405, -12.354
44.898, 69.360, -12.532
45.552, 69.306, -12.718
46.214, 69.247, -12.854
46.886, 69.192, -12.945
47.568, 69.143, -13.030
48.260, 69.098, -13.117
48.962, 69.060, -13.228
49.674, 69.022, -13.397
50.397, 68.977, -13.577
51.130, 68.930, -13.715
51.874, 68.887, -13.835
52.628, 68.843, -13.936
53.394, 68.802, -14.028
54.170, 68.754, -14.126
54.958, 68.700, -14.089
55.758, 68.674, -14.011
56.569, 68.652, -14.203
57.391, 68.581, -14.429
58.226, 68.505, -14.395
59.073, 68.452, -14.377
59.932, 68.394, -14.408
60.804, 68.346, -14.395
61.688, 68.304, -14.475
62.586, 68.254, -14.502
63.496, 68.221, -14.472
64.420, 68.189, -14.469
65.357, 68.166, -14.375
66.307, 68.158, -14.385
67.272, 68.130, -14.461
68.250, 68.099, -14.506
69.243, 68.055, -14.625
70.250, 68.001, -14.604
71.272, 67.977, -14.625
72.309, 67.940, -14.830
73.360, 67.900, -14.897
74.427, 67.885, -15.128
75.510, 67.819, -15.457
76.608, 67.738, -15.437
77.723, 67.673, -15.299
78.853, 67.631, -15.030
80.000, 67.615, -14.998
81.164, 67.568, -15.074
82.344, 67.516, -15.102
83.542, 67.465, -15.111
84.757, 67.417, -15.164
85.990, 67.372, -15.210
87.241, 67.318, -15.339
88.510, 67.259, -15.293
89.797, 67.222, -15.304
91.103, 67.167, -15.328
92.428, 67.107, -15.196
93.773, 67.074, -14.921
95.137, 67.063, -14.874
96.520, 67.019, -14.924
97.924, 66.960, -14.825
99.349, 66.929, -14.543
100.794, 66.907, -14.589
102.260, 66.831, -14.422
103.747, 66.792, -14.103
105.256, 66.772, -13.989
106.787, 66.721, -14.134
108.340, 66.666, -14.002
109.916, 66.660, -14.065
111.515, 66.627, -14.267
113.137, 66.581, -14.270
114.783, 66.538, -14.227
116.452, 66.502, -14.097
118.146, 66.459, -14.246
119.865, 66.366, -14.267
121.608, 66.299, -14.033
123.377, 66.265, -13.893
125.171, 66.226, -13.952
126.992, 66.131, -13.986
128.839, 66.025, -13.789
130.713, 65.935, -13.412
132.615, 65.912, -12.960
134.543, 65.910, -12.822
136.500, 65.874, -12.590
138.486, 65.829, -12.208
140.500, 65.780, -11.915
142.544, 65.714, -11.665
144.617, 65.649, -11.276
146.721, 65.610, -10.785
148.855, 65.575, -10.322
151.020, 65.562, -9.789
153.217, 65.569, -9.418
155.445, 65.586, -9.146
157.706, 65.593, -9.011
160.000, 65.594, -8.991
162.327, 65.566, -9.124
164.688, 65.499, -9.197
167.084, 65.407, -9.100
169.514, 65.313, -8.801
171.980, 65.220, -8.358
174.481, 65.116, -7.723
177.019, 65.056, -6.895
179.594, 64.964, -5.796
182.206, 64.965, -4.286
184.856, 65.009, -3.136
187.545, 65.102, -2.270
190.273, 65.167, -1.032
193.041, 65.298, 0.395
195.849, 65.475, 1.478
198.697, 65.727, 2.029
201.587, 65.992, 2.015
204.520, 66.226, 1.546
207.494, 66.419, 0.687
210.512, 66.555, -0.379
213.574, 66.637, -1.522
216.681, 66.689, -2.625
219.833, 66.700, -3.620
223.030, 66.691, -4.523
226.274, 66.660, -5.390
229.565, 66.609, -6.148
232.905, 66.541, -6.821
236.292, 66.466, -7.399
239.729, 66.387, -7.848
243.216, 66.299, -8.200
246.754, 66.212, -8.473
250.343, 66.125, -8.659
253.984, 66.040, -8.794
257.678, 65.958, -8.875
261.426, 65.880, -8.905
265.229, 65.804, -8.906
269.087, 65.730, -8.878
273.001, 65.658, -8.819
276.972, 65.586, -8.732
281.000, 65.516, -8.616
285.088, 65.448, -8.475
289.234, 65.385, -8.300
293.441, 65.321, -8.106
297.710, 65.264, -7.879
302.040, 65.217, -7.657
306.433, 65.171, -7.470
310.890, 65.126, -7.321
315.412, 65.079, -7.196
320.000, 65.023, -7.092
324.655, 64.967, -6.968
329.377, 64.902, -6.813
334.168, 64.831, -6.624
339.028, 64.756, -6.392
343.959, 64.679, -6.136
348.962, 64.599, -5.815
354.038, 64.517, -5.444
359.188, 64.433, -5.045
364.412, 64.349, -4.559
369.713, 64.266, -4.014
375.090, 64.182, -3.408
380.546, 64.101, -2.683
386.081, 64.025, -1.864
391.697, 63.960, -0.947
397.395, 63.906, 0.097
403.175, 63.874, 1.226
409.039, 63.866, 2.416
414.989, 63.885, 3.608
421.025, 63.929, 4.772
427.149, 63.999, 5.870
433.362, 64.090, 6.897
439.665, 64.197, 7.785
446.060, 64.312, 8.516
452.548, 64.438, 9.141
459.131, 64.572, 9.633
465.809, 64.697, 9.922
472.584, 64.813, 10.134
479.458, 64.929, 10.237
486.432, 65.028, 10.206
493.507, 65.104, 10.152
500.686, 65.163, 10.146
507.968, 65.224, 10.188
515.357, 65.283, 10.233
522.853, 65.335, 10.261
530.458, 65.383, 10.352
538.174, 65.435, 10.470
546.002, 65.493, 10.564
553.943, 65.553, 10.622
562.001, 65.607, 10.643
570.175, 65.659, 10.707
578.469, 65.717, 10.782
586.883, 65.778, 10.827
595.419, 65.841, 10.850
604.080, 65.905, 10.846
612.866, 65.971, 10.812
621.780, 66.039, 10.742
630.824, 66.106, 10.629
640.000, 66.170, 10.480
649.309, 66.232, 10.306
658.753, 66.292, 10.104
668.335, 66.351, 9.875
678.056, 66.410, 9.611
687.919, 66.466, 9.311
697.925, 66.521, 8.965
708.076, 66.574, 8.567
718.376, 66.622, 8.117
728.825, 66.663, 7.613
739.426, 66.697, 7.058
750.181, 66.724, 6.451
761.093, 66.742, 5.791
772.163, 66.747, 5.093
783.394, 66.739, 4.352
794.789, 66.717, 3.572
806.349, 66.677, 2.766
818.078, 66.616, 1.940
829.977, 66.533, 1.129
842.050, 66.425, 0.357
854.297, 66.295, -0.335
866.724, 66.143, -0.916
879.330, 65.974, -1.371
892.120, 65.788, -1.674
905.097, 65.591, -1.808
918.262, 65.385, -1.758
931.618, 65.177, -1.519
945.169, 64.968, -1.093
958.917, 64.766, -0.479
972.864, 64.575, 0.310
987.015, 64.398, 1.261
1001.371, 64.239, 2.351
1015.937, 64.100, 3.552
1030.714, 63.981, 4.844
1045.706, 63.884, 6.211
1060.916, 63.809, 7.624
1076.347, 63.754, 9.070
1092.003, 63.721, 10.526
1107.887, 63.707, 11.977
1124.001, 63.713, 13.415
1140.350, 63.736, 14.817
1156.937, 63.773, 16.176
1173.765, 63.822, 17.486
1190.838, 63.882, 18.741
1208.159, 63.949, 19.951
1225.732, 64.021, 21.125
1243.561, 64.099, 22.282
1261.649, 64.181, 23.460
1280.000, 64.274, 24.685
1298.618, 64.384, 25.926
1317.507, 64.512, 27.103
1336.670, 64.652, 28.173
1356.113, 64.797, 29.132
1375.838, 64.945, 30.001
1395.850, 65.092, 30.797
1416.153, 65.238, 31.540
1436.751, 65.382, 32.247
1457.649, 65.525, 32.942
1478.851, 65.669, 33.625
1500.362, 65.817, 34.307
1522.185, 65.969, 34.984
1544.326, 66.126, 35.650
1566.789, 66.288, 36.305
1589.578, 66.457, 36.940
1612.699, 66.632, 37.555
1636.156, 66.814, 38.145
1659.955, 67.003, 38.710
1684.099, 67.200, 39.249
1708.595, 67.403, 39.758
1733.447, 67.615, 40.237
1758.661, 67.835, 40.679
1784.241, 68.065, 41.083
1810.193, 68.304, 41.437
1836.523, 68.552, 41.730
1863.236, 68.810, 41.962
1890.338, 69.078, 42.123
1917.833, 69.358, 42.206
1945.729, 69.646, 42.202
1974.030, 69.945, 42.100
2002.743, 70.253, 41.886
2031.873, 70.572, 41.550
2061.428, 70.899, 41.072
2091.412, 71.235, 40.433
2121.832, 71.576, 39.614
2152.695, 71.924, 38.596
2184.007, 72.274, 37.355
2215.774, 72.620, 35.865
2248.003, 72.959, 34.109
2280.701, 73.282, 32.077
2313.874, 73.584, 29.750
2347.530, 73.855, 27.138
2381.676, 74.088, 24.258
2416.318, 74.273, 21.136
2451.464, 74.399, 17.824
2487.122, 74.462, 14.382
2523.298, 74.459, 10.881
2560.000, 74.390, 7.399
2597.236, 74.255, 4.008
2635.014, 74.055, 0.781
2673.341, 73.797, -2.223
2712.226, 73.485, -4.947
2751.676, 73.123, -7.325
2791.700, 72.719, -9.277
2832.306, 72.285, -10.719
2873.503, 71.845, -11.600
2915.299, 71.424, -11.951
2957.703, 71.046, -11.895
3000.724, 70.718, -11.569
3044.370, 70.440, -11.087
3088.652, 70.209, -10.546
3133.577, 70.012, -10.035
3179.156, 69.836, -9.600
3225.398, 69.665, -9.231
3272.312, 69.489, -8.876
3319.909, 69.302, -8.464
3368.198, 69.107, -7.931
3417.190, 68.911, -7.229
3466.894, 68.721, -6.329
3517.321, 68.544, -5.227
3568.482, 68.388, -3.933
3620.387, 68.259, -2.466
3673.046, 68.162, -0.856
3726.472, 68.100, 0.866
3780.675, 68.076, 2.671
3835.666, 68.093, 4.532
3891.457, 68.151, 6.422
3948.060, 68.253, 8.314
4005.486, 68.403, 10.183
4063.747, 68.601, 11.998
4122.855, 68.852, 13.720
4182.824, 69.160, 15.309
4243.664, 69.528, 16.709
4305.390, 69.962, 17.854
4368.013, 70.464, 18.656
4431.547, 71.040, 18.993
4496.005, 71.690, 18.704
4561.401, 72.408, 17.572
4627.749, 73.176, 15.311
4695.061, 73.952, 11.588
4763.352, 74.654, 6.099
4832.637, 75.158, -1.209
4902.929, 75.328, -9.858
4974.244, 75.080, -18.759
5046.596, 74.445, -26.667
5120.000, 73.540, -32.778
5194.472, 72.500, -36.909
5270.027, 71.433, -39.268
5346.682, 70.399, -40.181
5424.451, 69.432, -39.964
5503.352, 68.544, -38.869
5583.399, 67.740, -37.088
5664.612, 67.020, -34.766
5747.006, 66.380, -32.016
5830.598, 65.818, -28.918
5915.406, 65.331, -25.532
6001.447, 64.919, -21.906
6088.740, 64.578, -18.083
6177.303, 64.313, -14.084
6267.154, 64.126, -9.970
6358.312, 64.018, -5.794
6450.796, 63.991, -1.606
6544.625, 64.046, 2.532
6639.818, 64.187, 6.543
6736.397, 64.411, 10.334
6834.380, 64.714, 13.801
6933.789, 65.083, 16.841
7034.643, 65.502, 19.367
7136.964, 65.946, 21.327
7240.773, 66.381, 22.795
7346.093, 66.785, 24.050
7452.944, 67.187, 25.474
7561.350, 67.668, 27.226
7671.332, 68.326, 28.992
7782.915, 69.221, 29.967
7896.120, 70.330, 28.978
8010.971, 71.479, 24.746
8127.493, 72.333, 16.841
8245.711, 72.569, 6.794
8365.647, 72.131, -2.283
8487.328, 71.306, -8.361
8610.779, 70.410, -11.789
8736.026, 69.536, -13.585
8863.095, 68.670, -13.995
8992.011, 67.846, -12.968
9122.803, 67.125, -10.653
9255.497, 66.549, -7.345
9390.121, 66.142, -3.353
9526.704, 65.918, 1.044
9665.273, 65.884, 5.595
9805.857, 66.050, 10.038
9948.487, 66.428, 14.078
10093.191, 67.034, 17.296
10240.000, 67.869, 19.047
10388.944, 68.878, 18.346
10540.055, 69.869, 14.018
10693.363, 70.470, 5.760
10848.902, 70.295, -4.396
11006.703, 69.303, -12.223
11166.799, 67.904, -15.080
11329.224, 66.576, -13.216
11494.012, 65.621, -8.099
11661.195, 65.188, -1.309
11830.812, 65.351, 5.489
12002.895, 66.055, 10.246
12177.480, 67.019, 11.010
12354.606, 67.761, 7.369
12534.309, 67.925, 1.804
12716.624, 67.614, -2.225
12901.592, 67.234, -3.601
13089.250, 67.118, -3.542
13279.637, 67.377, -4.118
13472.794, 67.888, -7.649
13668.760, 68.209, -15.800
13867.577, 67.749, -26.940
14069.285, 66.349, -35.873
14273.928, 64.479, -39.213
14481.547, 62.708, -37.454
14692.186, 61.369, -32.247
14905.889, 60.714, -25.388
15122.700, 60.975, -20.112
15342.664, 62.024, -22.780
15565.829, 62.197, -44.170
15792.239, 57.487, -52.098
16021.942, 54.162, -1.779
16254.986, 57.845, 11.514
16491.422, 60.332, 4.973
16731.295, 61.656, -10.420
16974.656, 61.465, -27.644
17221.559, 60.746, -44.655
17472.053, 58.535, -68.063
17726.189, 53.137, -62.501
17984.021, 50.912, -51.717
18245.605, 49.151, -46.838
18510.994, 47.461, -36.584
18780.242, 47.206, -27.215
19053.408, 47.200, -28.076
19330.547, 45.926, -31.548
19611.715, 43.964, -28.946
19896.975, 42.339, -22.230
