* Measurement data measured by REW V5.19
* Source: ASIO MOTU M Series, In 1
* Format: 1M Log Swept Sine, 1 sweep at -3.0 dBFS  With no timing reference
* Dated: 10 Mar, 2023 3:27:44 PM
* REW Settings:
*  C-weighting compensation: Off
*  Target level: 75.0 dB
* Note: ; 
* Measurement: Mar 10 15:27:44
* Smoothing: 1/48 octave
* Frequency Step: 1/48 octave
* Start Frequency: 10.1 Hz
*
* Freq(Hz), SPL(dB), Phase(degrees)
10.145, 51.587, -64.354
10.293, 51.678, -64.895
10.443, 51.773, -65.623
10.595, 51.925, -66.570
10.749, 52.088, -67.569
10.905, 52.227, -68.355
11.064, 52.358, -69.088
11.225, 52.501, -69.972
11.388, 52.649, -70.944
11.554, 52.787, -71.925
11.722, 52.917, -72.923
11.892, 53.037, -73.914
12.065, 53.147, -74.895
12.241, 53.252, -75.848
12.419, 53.350, -76.760
12.599, 53.444, -77.581
12.782, 53.539, -78.334
12.968, 53.640, -79.035
13.157, 53.749, -79.699
13.348, 53.868, -80.330
13.543, 53.996, -80.982
13.740, 54.134, -81.668
13.939, 54.277, -82.417
14.142, 54.421, -83.230
14.348, 54.562, -84.111
14.557, 54.697, -85.041
14.768, 54.824, -86.010
14.983, 54.941, -86.984
15.201, 55.050, -87.950
15.422, 55.152, -88.891
15.646, 55.249, -89.796
15.874, 55.344, -90.666
16.105, 55.438, -91.502
16.339, 55.534, -92.312
16.577, 55.630, -93.103
16.818, 55.728, -93.880
17.063, 55.828, -94.650
17.311, 55.930, -95.418
17.563, 56.033, -96.190
17.818, 56.137, -96.971
18.077, 56.241, -97.768
18.340, 56.343, -98.579
18.607, 56.442, -99.400
18.877, 56.537, -100.221
19.152, 56.627, -101.031
19.431, 56.714, -101.816
19.713, 56.800, -102.575
20.000, 56.887, -103.310
20.291, 56.975, -104.034
20.586, 57.066, -104.758
20.885, 57.156, -105.490
21.189, 57.246, -106.234
21.497, 57.334, -106.984
21.810, 57.419, -107.732
22.127, 57.502, -108.474
22.449, 57.585, -109.211
22.776, 57.667, -109.946
23.107, 57.748, -110.682
23.443, 57.828, -111.421
23.784, 57.907, -112.161
24.130, 57.985, -112.901
24.481, 58.061, -113.641
24.837, 58.137, -114.383
25.198, 58.211, -115.129
25.565, 58.283, -115.872
25.937, 58.354, -116.609
26.314, 58.423, -117.336
26.697, 58.493, -118.057
27.085, 58.563, -118.780
27.479, 58.632, -119.509
27.879, 58.699, -120.239
28.284, 58.763, -120.959
28.696, 58.826, -121.663
29.113, 58.890, -122.355
29.537, 58.954, -123.049
29.966, 59.018, -123.751
30.402, 59.080, -124.460
30.844, 59.139, -125.165
31.293, 59.196, -125.862
31.748, 59.252, -126.552
32.210, 59.307, -127.239
32.678, 59.360, -127.919
33.154, 59.413, -128.588
33.636, 59.466, -129.252
34.125, 59.520, -129.922
34.621, 59.574, -130.602
35.125, 59.624, -131.285
35.636, 59.673, -131.962
36.154, 59.721, -132.636
36.680, 59.768, -133.311
37.214, 59.811, -133.980
37.755, 59.852, -134.631
38.304, 59.894, -135.268
38.861, 59.936, -135.908
39.427, 59.976, -136.550
40.000, 60.014, -137.180
40.582, 60.053, -137.801
41.172, 60.094, -138.432
41.771, 60.132, -139.080
42.379, 60.166, -139.726
42.995, 60.200, -140.356
43.620, 60.233, -140.979
44.255, 60.267, -141.605
44.898, 60.298, -142.222
45.552, 60.328, -142.820
46.214, 60.361, -143.417
46.886, 60.392, -144.032
47.568, 60.417, -144.640
48.260, 60.440, -145.196
48.962, 60.470, -145.739
49.674, 60.503, -146.343
50.397, 60.526, -146.981
51.130, 60.542, -147.573
51.874, 60.562, -148.131
52.628, 60.585, -148.706
53.394, 60.607, -149.287
54.170, 60.631, -149.876
54.958, 60.649, -150.500
55.758, 60.655, -151.083
56.569, 60.664, -151.546
57.391, 60.692, -152.021
58.226, 60.717, -152.631
59.073, 60.723, -153.238
59.932, 60.729, -153.747
60.804, 60.745, -154.267
61.688, 60.760, -154.820
62.586, 60.774, -155.391
63.496, 60.780, -155.978
64.420, 60.779, -156.511
65.357, 60.778, -157.009
66.307, 60.770, -157.483
67.272, 60.762, -157.899
68.250, 60.758, -158.270
69.243, 60.776, -158.627
70.250, 60.811, -159.208
71.272, 60.815, -159.947
72.309, 60.801, -160.542
73.360, 60.794, -161.088
74.427, 60.780, -161.591
75.510, 60.770, -162.040
76.608, 60.760, -162.523
77.723, 60.745, -163.026
78.853, 60.729, -163.536
80.000, 60.727, -164.107
81.164, 60.703, -164.876
82.344, 60.632, -165.311
83.542, 60.616, -165.291
84.757, 60.656, -165.502
85.990, 60.667, -165.978
87.241, 60.633, -166.352
88.510, 60.603, -166.522
89.797, 60.601, -166.724
91.103, 60.610, -167.170
92.428, 60.588, -167.618
93.773, 60.592, -167.964
95.137, 60.582, -168.400
96.520, 60.579, -168.729
97.924, 60.567, -169.159
99.349, 60.546, -169.552
100.794, 60.526, -170.015
102.260, 60.494, -170.483
103.747, 60.463, -170.899
105.256, 60.428, -171.296
106.787, 60.387, -171.666
108.340, 60.334, -172.016
109.916, 60.276, -172.309
111.515, 60.218, -172.559
113.137, 60.166, -172.682
114.783, 60.120, -172.697
116.452, 60.082, -172.595
118.146, 60.038, -172.548
119.865, 60.020, -172.215
121.608, 60.060, -172.612
123.377, 60.041, -172.979
125.171, 60.042, -173.279
126.992, 60.035, -173.539
128.839, 60.026, -173.770
130.713, 60.004, -174.068
132.615, 59.976, -174.400
134.543, 59.952, -174.756
136.500, 59.918, -175.097
138.486, 59.877, -175.482
140.500, 59.813, -175.748
142.544, 59.765, -176.069
144.617, 59.685, -176.391
146.721, 59.588, -176.491
148.855, 59.499, -176.468
151.020, 59.413, -176.435
153.217, 59.340, -176.303
155.445, 59.287, -176.158
157.706, 59.226, -175.943
160.000, 59.153, -175.668
162.327, 59.073, -175.403
164.688, 58.991, -175.015
167.084, 58.933, -174.329
169.514, 58.888, -173.312
171.980, 58.894, -172.061
174.481, 58.969, -170.937
177.019, 59.121, -170.066
179.594, 59.319, -169.633
182.206, 59.520, -169.670
184.856, 59.698, -170.154
187.545, 59.841, -170.936
190.273, 59.934, -171.883
193.041, 59.982, -172.825
195.849, 60.001, -173.720
198.697, 59.992, -174.555
201.587, 59.961, -175.340
204.520, 59.918, -175.986
207.494, 59.874, -176.555
210.512, 59.818, -177.069
213.574, 59.761, -177.539
216.681, 59.696, -177.954
219.833, 59.630, -178.285
223.030, 59.565, -178.601
226.274, 59.495, -178.926
229.565, 59.431, -179.184
232.905, 59.365, -179.442
236.292, 59.282, -179.685
239.729, 59.197, -179.895
243.216, 59.113, 179.949
246.754, 59.030, 179.839
250.343, 58.940, 179.784
253.984, 58.851, 179.786
257.678, 58.760, 179.828
261.426, 58.670, 179.925
265.229, 58.584, -179.919
269.087, 58.499, -179.681
273.001, 58.424, -179.393
276.972, 58.368, -179.118
281.000, 58.321, -178.873
285.088, 58.276, -178.683
289.234, 58.241, -178.548
293.441, 58.199, -178.519
297.710, 58.146, -178.512
302.040, 58.084, -178.506
306.433, 58.011, -178.482
310.890, 57.928, -178.453
315.412, 57.834, -178.399
320.000, 57.731, -178.264
324.655, 57.627, -178.072
329.377, 57.517, -177.859
334.168, 57.400, -177.601
339.028, 57.285, -177.240
343.959, 57.167, -176.856
348.962, 57.041, -176.425
354.038, 56.909, -175.849
359.188, 56.780, -175.198
364.412, 56.647, -174.446
369.713, 56.510, -173.559
375.090, 56.378, -172.530
380.546, 56.252, -171.335
386.081, 56.141, -169.958
391.697, 56.053, -168.413
397.395, 56.001, -166.698
403.175, 55.997, -164.895
409.039, 56.048, -163.128
414.989, 56.141, -161.523
421.025, 56.273, -160.188
427.149, 56.418, -159.182
433.362, 56.552, -158.495
439.665, 56.666, -158.003
446.060, 56.749, -157.650
452.548, 56.808, -157.276
459.131, 56.846, -156.864
465.809, 56.868, -156.425
472.584, 56.898, -155.863
479.458, 56.925, -155.283
486.432, 56.948, -154.666
493.507, 56.972, -154.027
500.686, 57.002, -153.375
507.968, 57.027, -152.685
515.357, 57.052, -151.959
522.853, 57.082, -151.152
530.458, 57.122, -150.285
538.174, 57.178, -149.371
546.002, 57.244, -148.497
553.943, 57.338, -147.617
562.001, 57.441, -146.826
570.175, 57.554, -146.134
578.469, 57.673, -145.562
586.883, 57.791, -145.132
595.419, 57.900, -144.808
604.080, 57.996, -144.596
612.866, 58.077, -144.417
621.780, 58.141, -144.252
630.824, 58.193, -144.096
640.000, 58.234, -143.869
649.309, 58.260, -143.589
658.753, 58.287, -143.280
668.335, 58.310, -142.897
678.056, 58.332, -142.467
687.919, 58.355, -142.001
697.925, 58.376, -141.476
708.076, 58.396, -140.906
718.376, 58.416, -140.293
728.825, 58.440, -139.641
739.426, 58.464, -138.950
750.181, 58.492, -138.202
761.093, 58.525, -137.419
772.163, 58.561, -136.607
783.394, 58.597, -135.742
794.789, 58.635, -134.834
806.349, 58.678, -133.844
818.078, 58.736, -132.708
829.977, 58.825, -131.507
842.050, 58.945, -130.379
854.297, 59.082, -129.393
866.724, 59.221, -128.514
879.330, 59.355, -127.711
892.120, 59.487, -126.956
905.097, 59.615, -126.216
918.262, 59.741, -125.459
931.618, 59.870, -124.713
945.169, 60.006, -123.962
958.917, 60.148, -123.218
972.864, 60.295, -122.503
987.015, 60.446, -121.811
1001.371, 60.600, -121.145
1015.937, 60.755, -120.510
1030.714, 60.912, -119.893
1045.706, 61.070, -119.288
1060.916, 61.229, -118.696
1076.347, 61.391, -118.115
1092.003, 61.555, -117.542
1107.887, 61.721, -116.977
1124.001, 61.888, -116.408
1140.350, 62.063, -115.840
1156.937, 62.244, -115.277
1173.765, 62.428, -114.726
1190.838, 62.616, -114.195
1208.159, 62.809, -113.688
1225.732, 63.007, -113.203
1243.561, 63.209, -112.745
1261.649, 63.415, -112.319
1280.000, 63.624, -111.927
1298.618, 63.835, -111.569
1317.507, 64.045, -111.228
1336.670, 64.258, -110.915
1356.113, 64.473, -110.619
1375.838, 64.692, -110.340
1395.850, 64.913, -110.069
1416.153, 65.137, -109.805
1436.751, 65.367, -109.547
1457.649, 65.604, -109.302
1478.851, 65.844, -109.057
1500.362, 66.090, -108.825
1522.185, 66.340, -108.602
1544.326, 66.600, -108.404
1566.789, 66.872, -108.231
1589.578, 67.156, -108.085
1612.699, 67.452, -107.984
1636.156, 67.759, -107.925
1659.955, 68.075, -107.927
1684.099, 68.402, -107.995
1708.595, 68.739, -108.143
1733.447, 69.092, -108.388
1758.661, 69.458, -108.739
1784.241, 69.834, -109.210
1810.193, 70.221, -109.814
1836.523, 70.618, -110.565
1863.236, 71.023, -111.476
1890.338, 71.435, -112.568
1917.833, 71.852, -113.853
1945.729, 72.271, -115.343
1974.030, 72.690, -117.055
2002.743, 73.108, -119.006
2031.873, 73.517, -121.201
2061.428, 73.912, -123.650
2091.412, 74.289, -126.357
2121.832, 74.644, -129.322
2152.695, 74.971, -132.541
2184.007, 75.264, -136.004
2215.774, 75.516, -139.690
2248.003, 75.724, -143.570
2280.701, 75.880, -147.614
2313.874, 75.982, -151.781
2347.530, 76.025, -156.029
2381.676, 76.006, -160.305
2416.318, 75.923, -164.549
2451.464, 75.777, -168.696
2487.122, 75.569, -172.679
2523.298, 75.306, -176.442
2560.000, 74.990, -179.929
2597.236, 74.636, 176.881
2635.014, 74.250, 174.014
2673.341, 73.839, 171.480
2712.226, 73.411, 169.278
2751.676, 72.972, 167.400
2791.700, 72.528, 165.832
2832.306, 72.083, 164.558
2873.503, 71.642, 163.559
2915.299, 71.207, 162.814
2957.703, 70.782, 162.306
3000.724, 70.370, 162.016
3044.370, 69.972, 161.924
3088.652, 69.585, 162.016
3133.577, 69.208, 162.283
3179.156, 68.849, 162.705
3225.398, 68.506, 163.277
3272.312, 68.180, 163.993
3319.909, 67.872, 164.849
3368.198, 67.580, 165.842
3417.190, 67.310, 166.975
3466.894, 67.064, 168.242
3517.321, 66.848, 169.619
3568.482, 66.667, 171.050
3620.387, 66.515, 172.459
3673.046, 66.383, 173.833
3726.472, 66.266, 175.206
3780.675, 66.164, 176.606
3835.666, 66.080, 178.032
3891.457, 66.017, 179.481
3948.060, 65.978, -179.051
4005.486, 65.964, -177.586
4063.747, 65.971, -176.149
4122.855, 66.000, -174.764
4182.824, 66.047, -173.434
4243.664, 66.109, -172.138
4305.390, 66.193, -170.859
4368.013, 66.298, -169.575
4431.547, 66.433, -168.303
4496.005, 66.612, -167.093
4561.401, 66.836, -166.008
4627.749, 67.107, -165.121
4695.061, 67.430, -164.529
4763.352, 67.794, -164.333
4832.637, 68.196, -164.678
4902.929, 68.622, -165.725
4974.244, 69.040, -167.657
5046.596, 69.398, -170.613
5120.000, 69.621, -174.562
5194.472, 69.624, -179.132
5270.027, 69.358, 176.455
5346.682, 68.855, 173.146
5424.451, 68.230, 171.584
5503.352, 67.631, 171.807
5583.399, 67.177, 173.316
5664.612, 66.915, 175.391
5747.006, 66.833, 177.388
5830.598, 66.876, 178.886
5915.406, 66.986, 179.715
6001.447, 67.106, 179.888
6088.740, 67.201, 179.538
6177.303, 67.254, 178.846
6267.154, 67.254, 177.982
6358.312, 67.208, 177.109
6450.796, 67.119, 176.353
6544.625, 67.003, 175.785
6639.818, 66.874, 175.436
6736.397, 66.751, 175.297
6834.380, 66.650, 175.335
6933.789, 66.580, 175.497
7034.643, 66.549, 175.710
7136.964, 66.565, 175.881
7240.773, 66.633, 175.902
7346.093, 66.754, 175.641
7452.944, 66.920, 174.952
7561.350, 67.114, 173.670
7671.332, 67.319, 171.610
7782.915, 67.493, 168.630
7896.120, 67.578, 164.690
8010.971, 67.509, 159.943
8127.493, 67.235, 154.790
8245.711, 66.729, 149.783
8365.647, 66.015, 145.446
8487.328, 65.144, 142.141
8610.779, 64.170, 140.035
8736.026, 63.148, 139.142
8863.095, 62.128, 139.368
8992.011, 61.141, 140.577
9122.803, 60.206, 142.605
9255.497, 59.327, 145.330
9390.121, 58.517, 148.643
9526.704, 57.783, 152.446
9665.273, 57.126, 156.663
9805.857, 56.544, 161.229
9948.487, 56.041, 166.081
10093.191, 55.619, 171.160
10240.000, 55.279, 176.439
10388.944, 55.025, -178.111
10540.055, 54.859, -172.495
10693.363, 54.796, -166.777
10848.902, 54.831, -161.059
11006.703, 54.977, -155.302
11166.799, 55.242, -149.581
11329.224, 55.638, -143.987
11494.012, 56.180, -138.635
11661.195, 56.895, -133.709
11830.812, 57.810, -129.492
12002.895, 58.953, -126.427
12177.480, 60.338, -125.277
12354.606, 61.919, -127.304
12534.309, 63.461, -134.212
12716.624, 64.443, -146.736
12901.592, 64.341, -161.792
13089.250, 63.183, -173.611
13279.637, 61.541, -179.338
13472.794, 59.988, 179.894
13668.760, 58.746, -177.760
13867.577, 57.888, -173.746
14069.285, 57.398, -169.120
14273.928, 57.250, -164.483
14481.547, 57.467, -160.427
14692.186, 58.075, -157.996
14905.889, 59.018, -158.894
15122.700, 59.994, -165.506
15342.664, 60.289, -178.755
15565.829, 59.243, 166.279
15792.239, 57.045, 156.923
16021.942, 54.456, 155.069
16254.986, 52.065, 160.252
16491.422, 50.774, 167.465
16731.295, 49.525, 171.177
16974.656, 48.134, 178.256
17221.559, 47.120, -172.940
17472.053, 46.448, -163.694
17726.189, 46.076, -154.429
17984.021, 45.994, -145.424
18245.605, 46.208, -136.968
18510.994, 46.758, -129.624
18780.242, 47.669, -124.201
19053.408, 48.947, -122.097
19330.547, 50.363, -125.973
19611.715, 51.153, -137.895
19896.975, 50.578, -152.313
