* Measurement data measured by REW V5.19
* Source: ASIO MOTU M Series, In 1
* Format: 1M Log Swept Sine, 1 sweep at -3.0 dBFS  With no timing reference
* Dated: 10 Mar, 2023 2:21:09 PM
* REW Settings:
*  C-weighting compensation: Off
*  Target level: 75.0 dB
* Note: ; 
* Measurement: Mar 10 14:21:09
* Smoothing: 1/48 octave
* Frequency Step: 1/48 octave
* Start Frequency: 10.1 Hz
*
* Freq(Hz), SPL(dB), Phase(degrees)
10.145, 62.628, -115.631
10.293, 62.661, -116.084
10.443, 62.696, -116.686
10.595, 62.755, -117.462
10.749, 62.820, -118.266
10.905, 62.877, -118.872
11.064, 62.933, -119.412
11.225, 62.992, -120.051
11.388, 63.051, -120.734
11.554, 63.106, -121.382
11.722, 63.156, -122.003
11.892, 63.203, -122.571
12.065, 63.249, -123.089
12.241, 63.299, -123.558
12.419, 63.353, -123.979
12.599, 63.418, -124.349
12.782, 63.494, -124.705
12.968, 63.584, -125.104
13.157, 63.682, -125.569
13.348, 63.787, -126.127
13.543, 63.887, -126.801
13.740, 63.981, -127.596
13.939, 64.055, -128.475
14.142, 64.107, -129.400
14.348, 64.132, -130.315
14.557, 64.134, -131.141
14.768, 64.115, -131.838
14.983, 64.087, -132.337
15.201, 64.063, -132.651
15.422, 64.052, -132.782
15.646, 64.069, -132.819
15.874, 64.115, -132.841
16.105, 64.189, -132.935
16.339, 64.281, -133.199
16.577, 64.377, -133.647
16.818, 64.465, -134.280
17.063, 64.532, -135.042
17.311, 64.574, -135.842
17.563, 64.595, -136.609
17.818, 64.598, -137.277
18.077, 64.599, -137.809
18.340, 64.608, -138.238
18.607, 64.631, -138.616
18.877, 64.670, -139.011
19.152, 64.718, -139.484
19.431, 64.764, -140.048
19.713, 64.797, -140.658
20.000, 64.816, -141.240
20.291, 64.825, -141.721
20.586, 64.835, -142.057
20.885, 64.861, -142.265
21.189, 64.914, -142.431
21.497, 64.995, -142.677
21.810, 65.088, -143.102
22.127, 65.176, -143.731
22.449, 65.239, -144.510
22.776, 65.269, -145.326
23.107, 65.268, -146.054
23.443, 65.249, -146.611
23.784, 65.229, -146.979
24.130, 65.222, -147.216
24.481, 65.233, -147.411
24.837, 65.259, -147.644
25.198, 65.292, -147.953
25.565, 65.323, -148.333
25.937, 65.350, -148.755
26.314, 65.373, -149.194
26.697, 65.395, -149.639
27.085, 65.417, -150.090
27.479, 65.440, -150.553
27.879, 65.464, -151.032
28.284, 65.487, -151.519
28.696, 65.509, -152.006
29.113, 65.531, -152.477
29.537, 65.553, -152.923
29.966, 65.578, -153.343
30.402, 65.606, -153.746
30.844, 65.636, -154.143
31.293, 65.666, -154.538
31.748, 65.694, -154.927
32.210, 65.719, -155.303
32.678, 65.743, -155.667
33.154, 65.764, -156.022
33.636, 65.782, -156.370
34.125, 65.799, -156.712
34.621, 65.814, -157.052
35.125, 65.829, -157.400
35.636, 65.843, -157.764
36.154, 65.856, -158.143
36.680, 65.867, -158.527
37.214, 65.878, -158.906
37.755, 65.889, -159.276
38.304, 65.902, -159.641
38.861, 65.916, -160.007
39.427, 65.930, -160.365
40.000, 65.944, -160.706
40.582, 65.960, -161.034
41.172, 65.978, -161.376
41.771, 65.993, -161.743
42.379, 66.001, -162.110
42.995, 66.004, -162.445
43.620, 66.010, -162.763
44.255, 66.017, -163.098
44.898, 66.021, -163.455
45.552, 66.022, -163.795
46.214, 66.027, -164.113
46.886, 66.036, -164.459
47.568, 66.040, -164.835
48.260, 66.038, -165.165
48.962, 66.044, -165.453
49.674, 66.053, -165.803
50.397, 66.047, -166.165
51.130, 66.038, -166.400
51.874, 66.049, -166.617
52.628, 66.062, -166.946
53.394, 66.066, -167.264
54.170, 66.080, -167.586
54.958, 66.087, -168.055
55.758, 66.060, -168.445
56.569, 66.043, -168.594
57.391, 66.054, -168.784
58.226, 66.056, -169.081
59.073, 66.049, -169.321
59.932, 66.047, -169.562
60.804, 66.038, -169.823
61.688, 66.027, -170.030
62.586, 66.024, -170.226
63.496, 66.024, -170.453
64.420, 66.025, -170.700
65.357, 66.026, -170.969
66.307, 66.022, -171.242
67.272, 66.017, -171.498
68.250, 66.009, -171.738
69.243, 66.001, -171.954
70.250, 65.995, -172.143
71.272, 65.995, -172.330
72.309, 65.998, -172.530
73.360, 66.005, -172.734
74.427, 66.020, -172.990
75.510, 66.030, -173.319
76.608, 66.033, -173.681
77.723, 66.026, -174.069
78.853, 66.005, -174.422
80.000, 65.985, -174.688
81.164, 65.975, -174.983
82.344, 65.958, -175.328
83.542, 65.934, -175.658
84.757, 65.906, -175.951
85.990, 65.881, -176.233
87.241, 65.847, -176.505
88.510, 65.815, -176.699
89.797, 65.786, -176.893
91.103, 65.756, -177.074
92.428, 65.725, -177.254
93.773, 65.691, -177.418
95.137, 65.659, -177.550
96.520, 65.631, -177.677
97.924, 65.610, -177.788
99.349, 65.595, -177.944
100.794, 65.572, -178.112
102.260, 65.554, -178.294
103.747, 65.528, -178.533
105.256, 65.496, -178.787
106.787, 65.458, -179.038
108.340, 65.413, -179.192
109.916, 65.378, -179.331
111.515, 65.317, -179.465
113.137, 65.260, -179.484
114.783, 65.208, -179.594
116.452, 65.154, -179.700
118.146, 65.118, -179.726
119.865, 65.083, -179.974
121.608, 64.988, -179.820
123.377, 64.931, -179.568
125.171, 64.868, -179.374
126.992, 64.804, -179.218
128.839, 64.744, -178.987
130.713, 64.696, -178.646
132.615, 64.655, -178.181
134.543, 64.634, -177.611
136.500, 64.638, -177.039
138.486, 64.679, -176.529
140.500, 64.755, -176.227
142.544, 64.845, -176.268
144.617, 64.908, -176.634
146.721, 64.932, -177.107
148.855, 64.920, -177.612
151.020, 64.875, -178.029
153.217, 64.808, -178.273
155.445, 64.736, -178.410
157.706, 64.651, -178.436
160.000, 64.569, -178.317
162.327, 64.495, -178.100
164.688, 64.430, -177.814
167.084, 64.379, -177.482
169.514, 64.332, -177.143
171.980, 64.286, -176.828
174.481, 64.225, -176.491
177.019, 64.157, -176.008
179.594, 64.100, -175.358
182.206, 64.068, -174.544
184.856, 64.078, -173.673
187.545, 64.120, -172.938
190.273, 64.168, -172.367
193.041, 64.208, -171.893
195.849, 64.240, -171.408
198.697, 64.278, -170.891
201.587, 64.321, -170.301
204.520, 64.389, -169.655
207.494, 64.479, -169.027
210.512, 64.596, -168.425
213.574, 64.743, -167.937
216.681, 64.919, -167.716
219.833, 65.126, -167.732
223.030, 65.346, -168.068
226.274, 65.484, -169.099
229.565, 65.569, -170.231
232.905, 65.622, -171.403
236.292, 65.632, -172.500
239.729, 65.604, -173.486
243.216, 65.549, -174.323
246.754, 65.472, -174.997
250.343, 65.387, -175.521
253.984, 65.294, -175.889
257.678, 65.202, -176.102
261.426, 65.112, -176.189
265.229, 65.031, -176.196
269.087, 64.962, -176.107
273.001, 64.910, -175.962
276.972, 64.873, -175.858
281.000, 64.846, -175.789
285.088, 64.822, -175.745
289.234, 64.794, -175.828
293.441, 64.754, -175.987
297.710, 64.704, -176.127
302.040, 64.643, -176.210
306.433, 64.569, -176.263
310.890, 64.485, -176.251
315.412, 64.390, -176.146
320.000, 64.306, -175.780
324.655, 64.264, -175.501
329.377, 64.203, -175.392
334.168, 64.120, -175.218
339.028, 64.041, -174.975
343.959, 63.962, -174.677
348.962, 63.885, -174.325
354.038, 63.804, -173.948
359.188, 63.723, -173.535
364.412, 63.645, -173.078
369.713, 63.560, -172.557
375.090, 63.465, -171.967
380.546, 63.373, -171.261
386.081, 63.285, -170.462
391.697, 63.201, -169.578
397.395, 63.120, -168.505
403.175, 63.057, -167.297
409.039, 63.013, -165.973
414.989, 63.000, -164.524
421.025, 63.025, -163.062
427.149, 63.081, -161.634
433.362, 63.176, -160.301
439.665, 63.302, -159.127
446.060, 63.436, -158.148
452.548, 63.574, -157.395
459.131, 63.714, -156.843
465.809, 63.840, -156.409
472.584, 63.954, -156.052
479.458, 64.074, -155.719
486.432, 64.148, -155.567
493.507, 64.248, -155.274
500.686, 64.332, -155.140
507.968, 64.401, -154.972
515.357, 64.460, -154.731
522.853, 64.511, -154.511
530.458, 64.566, -154.245
538.174, 64.626, -153.893
546.002, 64.682, -153.576
553.943, 64.739, -153.224
562.001, 64.803, -152.847
570.175, 64.874, -152.485
578.469, 64.959, -152.122
586.883, 65.052, -151.847
595.419, 65.151, -151.664
604.080, 65.244, -151.627
612.866, 65.323, -151.697
621.780, 65.384, -151.782
630.824, 65.429, -151.851
640.000, 65.453, -151.913
649.309, 65.475, -151.857
658.753, 65.497, -151.724
668.335, 65.519, -151.607
678.056, 65.541, -151.428
687.919, 65.561, -151.219
697.925, 65.580, -150.979
708.076, 65.596, -150.735
718.376, 65.613, -150.456
728.825, 65.630, -150.137
739.426, 65.651, -149.779
750.181, 65.673, -149.393
761.093, 65.696, -148.953
772.163, 65.724, -148.499
783.394, 65.759, -148.015
794.789, 65.796, -147.523
806.349, 65.836, -147.009
818.078, 65.881, -146.503
829.977, 65.932, -146.004
842.050, 65.986, -145.497
854.297, 66.041, -144.977
866.724, 66.100, -144.444
879.330, 66.163, -143.899
892.120, 66.230, -143.334
905.097, 66.307, -142.764
918.262, 66.390, -142.198
931.618, 66.475, -141.620
945.169, 66.568, -141.074
958.917, 66.669, -140.558
972.864, 66.773, -140.064
987.015, 66.885, -139.609
1001.371, 66.998, -139.195
1015.937, 67.106, -138.782
1030.714, 67.215, -138.399
1045.706, 67.329, -138.025
1060.916, 67.447, -137.661
1076.347, 67.568, -137.322
1092.003, 67.691, -137.025
1107.887, 67.816, -136.760
1124.001, 67.940, -136.551
1140.350, 68.056, -136.350
1156.937, 68.163, -136.132
1173.765, 68.267, -135.866
1190.838, 68.371, -135.536
1208.159, 68.485, -135.181
1225.732, 68.611, -134.808
1243.561, 68.746, -134.442
1261.649, 68.891, -134.105
1280.000, 69.042, -133.804
1298.618, 69.200, -133.542
1317.507, 69.362, -133.325
1336.670, 69.528, -133.147
1356.113, 69.695, -133.002
1375.838, 69.866, -132.889
1395.850, 70.040, -132.805
1416.153, 70.218, -132.747
1436.751, 70.400, -132.714
1457.649, 70.588, -132.714
1478.851, 70.784, -132.745
1500.362, 70.989, -132.830
1522.185, 71.199, -132.964
1544.326, 71.416, -133.169
1566.789, 71.639, -133.454
1589.578, 71.869, -133.843
1612.699, 72.107, -134.350
1636.156, 72.346, -134.982
1659.955, 72.587, -135.761
1684.099, 72.824, -136.702
1708.595, 73.053, -137.810
1733.447, 73.268, -139.082
1758.661, 73.467, -140.526
1784.241, 73.645, -142.117
1810.193, 73.798, -143.834
1836.523, 73.920, -145.643
1863.236, 74.001, -147.490
1890.338, 74.049, -149.337
1917.833, 74.064, -151.135
1945.729, 74.046, -152.835
1974.030, 73.999, -154.407
2002.743, 73.932, -155.820
2031.873, 73.851, -157.070
2061.428, 73.756, -158.137
2091.412, 73.660, -159.046
2121.832, 73.566, -159.798
2152.695, 73.476, -160.413
2184.007, 73.395, -160.912
2215.774, 73.322, -161.320
2248.003, 73.258, -161.659
2280.701, 73.205, -161.943
2313.874, 73.164, -162.191
2347.530, 73.126, -162.392
2381.676, 73.096, -162.560
2416.318, 73.073, -162.699
2451.464, 73.063, -162.832
2487.122, 73.063, -162.966
2523.298, 73.066, -163.111
2560.000, 73.077, -163.282
2597.236, 73.094, -163.480
2635.014, 73.117, -163.702
2673.341, 73.142, -163.950
2712.226, 73.171, -164.228
2751.676, 73.202, -164.537
2791.700, 73.233, -164.878
2832.306, 73.265, -165.248
2873.503, 73.296, -165.643
2915.299, 73.328, -166.063
2957.703, 73.360, -166.505
3000.724, 73.389, -166.955
3044.370, 73.418, -167.417
3088.652, 73.446, -167.882
3133.577, 73.473, -168.349
3179.156, 73.500, -168.810
3225.398, 73.533, -169.270
3272.312, 73.574, -169.717
3319.909, 73.626, -170.165
3368.198, 73.687, -170.609
3417.190, 73.764, -171.063
3466.894, 73.868, -171.558
3517.321, 74.008, -172.144
3568.482, 74.192, -172.908
3620.387, 74.428, -173.998
3673.046, 74.717, -175.644
3726.472, 75.043, -178.153
3780.675, 75.353, 178.147
3835.666, 75.556, 173.037
3891.457, 75.526, 166.786
3948.060, 75.180, 160.240
4005.486, 74.528, 154.434
4063.747, 73.660, 150.050
4122.855, 72.687, 147.255
4182.824, 71.685, 145.868
4243.664, 70.695, 145.651
4305.390, 69.734, 146.458
4368.013, 68.805, 148.247
4431.547, 67.918, 151.060
4496.005, 67.104, 154.977
4561.401, 66.408, 160.063
4627.749, 65.903, 166.232
4695.061, 65.667, 173.137
4763.352, 65.763, -179.915
4832.637, 66.180, -173.812
4902.929, 66.828, -169.339
4974.244, 67.584, -166.930
5046.596, 68.315, -166.577
5120.000, 68.911, -167.898
5194.472, 69.308, -170.297
5270.027, 69.493, -173.123
5346.682, 69.486, -175.826
5424.451, 69.334, -178.049
5503.352, 69.088, -179.618
5583.399, 68.793, 179.492
5664.612, 68.487, 179.214
5747.006, 68.187, 179.450
5830.598, 67.908, -179.896
5915.406, 67.661, -178.908
6001.447, 67.456, -177.651
6088.740, 67.290, -176.183
6177.303, 67.173, -174.560
6267.154, 67.109, -172.865
6358.312, 67.102, -171.166
6450.796, 67.153, -169.537
6544.625, 67.264, -168.067
6639.818, 67.435, -166.859
6736.397, 67.660, -166.040
6834.380, 67.929, -165.743
6933.789, 68.223, -166.105
7034.643, 68.511, -167.235
7136.964, 68.760, -169.199
7240.773, 68.922, -171.949
7346.093, 68.950, -175.287
7452.944, 68.803, -178.814
7561.350, 68.488, 177.928
7671.332, 68.046, 175.289
7782.915, 67.511, 173.519
7896.120, 66.942, 172.712
8010.971, 66.395, 172.790
8127.493, 65.914, 173.543
8245.711, 65.524, 174.699
8365.647, 65.233, 175.939
8487.328, 65.029, 176.961
8610.779, 64.882, 177.547
8736.026, 64.779, 177.389
8863.095, 64.581, 176.001
8992.011, 64.179, 174.503
9122.803, 63.607, 173.509
9255.497, 62.908, 173.520
9390.121, 62.164, 174.840
9526.704, 61.466, 177.425
9665.273, 60.883, -179.004
9805.857, 60.453, -174.804
9948.487, 60.200, -170.343
10093.191, 60.133, -165.965
10240.000, 60.245, -162.023
10388.944, 60.534, -158.969
10540.055, 60.967, -157.418
10693.363, 61.446, -158.223
10848.902, 61.707, -162.258
11006.703, 61.280, -168.541
11166.799, 59.846, -171.934
11329.224, 57.925, -165.993
11494.012, 56.954, -151.640
11661.195, 57.616, -137.162
11830.812, 59.168, -128.093
12002.895, 60.904, -124.745
12177.480, 62.504, -125.799
12354.606, 63.844, -129.906
12534.309, 64.896, -135.938
12716.624, 65.711, -143.072
12901.592, 66.384, -151.084
13089.250, 66.964, -160.560
13279.637, 67.350, -172.529
13472.794, 67.251, 172.731
13668.760, 66.348, 157.222
13867.577, 64.646, 144.601
14069.285, 62.500, 136.900
14273.928, 60.301, 133.767
14481.547, 58.280, 134.050
14692.186, 56.517, 136.809
14905.889, 55.047, 141.439
15122.700, 53.914, 147.571
15342.664, 53.198, 154.959
15565.829, 53.093, 163.051
15792.239, 53.888, 169.663
16021.942, 55.375, 169.771
16254.986, 56.404, 161.254
16491.422, 56.568, 150.760
16731.295, 56.370, 140.570
16974.656, 55.930, 129.297
17221.559, 54.818, 116.181
17472.053, 52.763, 106.492
17726.189, 50.296, 103.213
17984.021, 47.932, 105.359
18245.605, 45.795, 112.137
18510.994, 44.131, 126.793
18780.242, 45.444, 146.007
19053.408, 47.525, 143.608
19330.547, 47.694, 137.803
19611.715, 47.971, 137.693
19896.975, 48.785, 137.734
