* Measurement data measured by REW V5.19
* Source: ASIO MOTU M Series, In 1
* Format: 1M Log Swept Sine, 1 sweep at -3.0 dBFS  With no timing reference
* Dated: 13 Mar, 2023 1:07:11 PM
* REW Settings:
*  C-weighting compensation: Off
*  Target level: 75.0 dB
* Note: ; 
* Measurement: Mar 13 13:07:11
* Smoothing: 1/48 octave
* Frequency Step: 1/48 octave
* Start Frequency: 10.1 Hz
*
* Freq(Hz), SPL(dB), Phase(degrees)
10.145, 55.891, -65.066
10.293, 56.005, -65.622
10.443, 56.124, -66.390
10.595, 56.303, -67.419
10.749, 56.487, -68.518
10.905, 56.626, -69.414
11.064, 56.745, -70.251
11.225, 56.873, -71.186
11.388, 57.000, -72.164
11.554, 57.117, -73.094
11.722, 57.225, -73.989
11.892, 57.327, -74.841
12.065, 57.425, -75.652
12.241, 57.524, -76.435
12.419, 57.622, -77.185
12.599, 57.721, -77.882
12.782, 57.821, -78.546
12.968, 57.927, -79.202
13.157, 58.038, -79.852
13.348, 58.152, -80.495
13.543, 58.271, -81.162
13.740, 58.393, -81.857
13.939, 58.517, -82.595
14.142, 58.639, -83.377
14.348, 58.757, -84.207
14.557, 58.868, -85.069
14.768, 58.970, -85.954
14.983, 59.060, -86.825
15.201, 59.141, -87.655
15.422, 59.214, -88.419
15.646, 59.286, -89.089
15.874, 59.363, -89.672
16.105, 59.450, -90.176
16.339, 59.555, -90.656
16.577, 59.677, -91.163
16.818, 59.813, -91.748
17.063, 59.957, -92.464
17.311, 60.097, -93.316
17.563, 60.225, -94.282
17.818, 60.334, -95.323
18.077, 60.420, -96.362
18.340, 60.487, -97.331
18.607, 60.543, -98.191
18.877, 60.597, -98.923
19.152, 60.659, -99.546
19.431, 60.736, -100.115
19.713, 60.827, -100.690
20.000, 60.928, -101.318
20.291, 61.034, -102.021
20.586, 61.137, -102.795
20.885, 61.232, -103.614
21.189, 61.318, -104.444
21.497, 61.396, -105.251
21.810, 61.470, -106.014
22.127, 61.542, -106.723
22.449, 61.618, -107.379
22.776, 61.700, -108.000
23.107, 61.792, -108.615
23.443, 61.890, -109.260
23.784, 61.990, -109.957
24.130, 62.086, -110.706
24.481, 62.171, -111.470
24.837, 62.245, -112.198
25.198, 62.313, -112.854
25.565, 62.384, -113.441
25.937, 62.462, -114.007
26.314, 62.544, -114.602
26.697, 62.621, -115.245
27.085, 62.687, -115.898
27.479, 62.744, -116.503
27.879, 62.801, -117.038
28.284, 62.867, -117.550
28.696, 62.941, -118.112
29.113, 63.015, -118.762
29.537, 63.081, -119.465
29.966, 63.138, -120.158
30.402, 63.197, -120.826
30.844, 63.259, -121.507
31.293, 63.318, -122.217
31.748, 63.367, -122.870
32.210, 63.418, -123.341
32.678, 63.503, -123.650
33.154, 63.640, -124.031
33.636, 63.798, -124.759
34.125, 63.917, -125.810
34.621, 63.969, -126.806
35.125, 63.992, -127.364
35.636, 64.057, -127.574
36.154, 64.181, -127.965
36.680, 64.292, -128.865
37.214, 64.308, -129.968
37.755, 64.242, -130.602
38.304, 64.196, -130.548
38.861, 64.249, -130.375
39.427, 64.357, -130.717
40.000, 64.427, -131.576
40.582, 64.434, -132.447
41.172, 64.429, -133.079
41.771, 64.449, -133.621
42.379, 64.485, -134.242
42.995, 64.522, -134.891
43.620, 64.566, -135.496
44.255, 64.621, -136.097
44.898, 64.677, -136.713
45.552, 64.730, -137.304
46.214, 64.780, -137.850
46.886, 64.827, -138.368
47.568, 64.870, -138.861
48.260, 64.910, -139.340
48.962, 64.949, -139.836
49.674, 64.983, -140.368
50.397, 65.010, -140.912
51.130, 65.039, -141.441
51.874, 65.073, -141.993
52.628, 65.106, -142.590
53.394, 65.132, -143.157
54.170, 65.163, -143.664
54.958, 65.198, -144.164
55.758, 65.231, -144.660
56.569, 65.262, -145.132
57.391, 65.291, -145.608
58.226, 65.314, -146.076
59.073, 65.337, -146.528
59.932, 65.360, -146.989
60.804, 65.380, -147.438
61.688, 65.407, -147.853
62.586, 65.444, -148.313
63.496, 65.474, -148.812
64.420, 65.504, -149.239
65.357, 65.548, -149.704
66.307, 65.581, -150.271
67.272, 65.598, -150.769
68.250, 65.619, -151.200
69.243, 65.647, -151.652
70.250, 65.673, -152.165
71.272, 65.690, -152.669
72.309, 65.714, -153.166
73.360, 65.732, -153.751
74.427, 65.737, -154.294
75.510, 65.740, -154.767
76.608, 65.748, -155.127
77.723, 65.780, -155.572
78.853, 65.775, -156.157
80.000, 65.769, -156.425
81.164, 65.802, -156.890
82.344, 65.805, -157.486
83.542, 65.803, -158.014
84.757, 65.799, -158.447
85.990, 65.812, -158.850
87.241, 65.814, -159.301
88.510, 65.806, -159.690
89.797, 65.792, -160.043
91.103, 65.786, -160.436
92.428, 65.772, -160.910
93.773, 65.756, -161.365
95.137, 65.735, -161.760
96.520, 65.717, -162.057
97.924, 65.697, -162.303
99.349, 65.682, -162.469
100.794, 65.683, -162.739
102.260, 65.684, -163.119
103.747, 65.683, -163.579
105.256, 65.678, -164.072
106.787, 65.650, -164.547
108.340, 65.619, -165.011
109.916, 65.553, -165.472
111.515, 65.491, -165.880
113.137, 65.387, -166.279
114.783, 65.271, -166.372
116.452, 65.132, -166.264
118.146, 65.023, -165.841
119.865, 64.886, -165.287
121.608, 64.827, -164.134
123.377, 64.840, -163.048
125.171, 64.868, -161.930
126.992, 64.978, -160.662
128.839, 65.162, -159.771
130.713, 65.385, -159.508
132.615, 65.572, -159.575
134.543, 65.742, -159.780
136.500, 65.907, -160.286
138.486, 66.028, -161.033
140.500, 66.125, -161.859
142.544, 66.196, -162.644
144.617, 66.246, -163.363
146.721, 66.291, -163.980
148.855, 66.318, -164.704
151.020, 66.318, -165.256
153.217, 66.336, -165.662
155.445, 66.356, -166.178
157.706, 66.369, -166.685
160.000, 66.377, -167.053
162.327, 66.399, -167.378
164.688, 66.430, -167.724
167.084, 66.467, -168.164
169.514, 66.504, -168.624
171.980, 66.536, -169.132
174.481, 66.560, -169.668
177.019, 66.577, -170.278
179.594, 66.587, -170.876
182.206, 66.590, -171.489
184.856, 66.584, -172.069
187.545, 66.570, -172.676
190.273, 66.548, -173.250
193.041, 66.520, -173.797
195.849, 66.488, -174.241
198.697, 66.448, -174.699
201.587, 66.410, -175.081
204.520, 66.384, -175.447
207.494, 66.359, -175.722
210.512, 66.341, -176.011
213.574, 66.330, -176.341
216.681, 66.324, -176.743
219.833, 66.312, -177.157
223.030, 66.299, -177.638
226.274, 66.269, -178.119
229.565, 66.238, -178.573
232.905, 66.203, -179.122
236.292, 66.155, -179.651
239.729, 66.098, 179.920
243.216, 66.034, 179.562
246.754, 65.977, 179.274
250.343, 65.923, 179.027
253.984, 65.884, 178.816
257.678, 65.857, 178.585
261.426, 65.830, 178.259
265.229, 65.800, 177.829
269.087, 65.757, 177.350
273.001, 65.708, 176.831
276.972, 65.645, 176.300
281.000, 65.571, 175.782
285.088, 65.491, 175.321
289.234, 65.403, 174.881
293.441, 65.303, 174.411
297.710, 65.199, 174.039
302.040, 65.083, 173.662
306.433, 64.955, 173.339
310.890, 64.821, 173.110
315.412, 64.680, 172.912
320.000, 64.536, 172.744
324.655, 64.391, 172.686
329.377, 64.238, 172.739
334.168, 64.080, 172.748
339.028, 63.914, 172.809
343.959, 63.731, 172.978
348.962, 63.541, 173.333
354.038, 63.349, 173.821
359.188, 63.147, 174.463
364.412, 62.942, 175.357
369.713, 62.743, 176.597
375.090, 62.570, 178.131
380.546, 62.447, 179.901
386.081, 62.381, -178.151
391.697, 62.380, -176.157
397.395, 62.445, -174.297
403.175, 62.569, -172.692
409.039, 62.736, -171.427
414.989, 62.919, -170.563
421.025, 63.101, -170.109
427.149, 63.254, -169.975
433.362, 63.378, -170.043
439.665, 63.473, -170.224
446.060, 63.543, -170.449
452.548, 63.588, -170.680
459.131, 63.612, -170.885
465.809, 63.618, -171.103
472.584, 63.610, -171.284
479.458, 63.592, -171.432
486.432, 63.549, -171.531
493.507, 63.499, -171.533
500.686, 63.434, -171.441
507.968, 63.359, -171.233
515.357, 63.289, -170.800
522.853, 63.241, -170.235
530.458, 63.212, -169.582
538.174, 63.206, -168.882
546.002, 63.225, -168.253
553.943, 63.260, -167.748
562.001, 63.307, -167.375
570.175, 63.346, -167.141
578.469, 63.376, -167.061
586.883, 63.390, -167.065
595.419, 63.383, -167.073
604.080, 63.356, -167.070
612.866, 63.317, -167.011
621.780, 63.268, -166.855
630.824, 63.210, -166.623
640.000, 63.149, -166.318
649.309, 63.090, -165.932
658.753, 63.028, -165.468
668.335, 62.969, -164.935
678.056, 62.912, -164.366
687.919, 62.857, -163.724
697.925, 62.803, -163.024
708.076, 62.752, -162.246
718.376, 62.708, -161.387
728.825, 62.672, -160.454
739.426, 62.648, -159.459
750.181, 62.638, -158.402
761.093, 62.643, -157.292
772.163, 62.664, -156.172
783.394, 62.703, -155.064
794.789, 62.758, -154.001
806.349, 62.825, -152.991
818.078, 62.902, -152.047
829.977, 62.986, -151.172
842.050, 63.076, -150.369
854.297, 63.168, -149.631
866.724, 63.265, -148.970
879.330, 63.366, -148.437
892.120, 63.461, -148.014
905.097, 63.537, -147.710
918.262, 63.581, -147.487
931.618, 63.581, -147.206
945.169, 63.540, -146.640
958.917, 63.494, -145.599
972.864, 63.493, -144.126
987.015, 63.566, -142.506
1001.371, 63.705, -141.014
1015.937, 63.883, -139.791
1030.714, 64.074, -138.843
1045.706, 64.263, -138.109
1060.916, 64.447, -137.535
1076.347, 64.624, -137.092
1092.003, 64.790, -136.714
1107.887, 64.946, -136.397
1124.001, 65.090, -136.075
1140.350, 65.232, -135.762
1156.937, 65.376, -135.477
1173.765, 65.517, -135.190
1190.838, 65.656, -134.924
1208.159, 65.793, -134.674
1225.732, 65.929, -134.428
1243.561, 66.067, -134.221
1261.649, 66.210, -134.047
1280.000, 66.351, -133.908
1298.618, 66.487, -133.785
1317.507, 66.620, -133.689
1336.670, 66.750, -133.611
1356.113, 66.877, -133.545
1375.838, 66.998, -133.484
1395.850, 67.117, -133.425
1416.153, 67.236, -133.371
1436.751, 67.355, -133.308
1457.649, 67.476, -133.247
1478.851, 67.596, -133.179
1500.362, 67.714, -133.110
1522.185, 67.832, -133.042
1544.326, 67.949, -132.966
1566.789, 68.066, -132.894
1589.578, 68.187, -132.820
1612.699, 68.310, -132.742
1636.156, 68.436, -132.660
1659.955, 68.566, -132.576
1684.099, 68.700, -132.498
1708.595, 68.840, -132.434
1733.447, 68.984, -132.394
1758.661, 69.133, -132.385
1784.241, 69.286, -132.411
1810.193, 69.442, -132.472
1836.523, 69.604, -132.574
1863.236, 69.769, -132.721
1890.338, 69.933, -132.908
1917.833, 70.100, -133.155
1945.729, 70.268, -133.456
1974.030, 70.435, -133.818
2002.743, 70.601, -134.239
2031.873, 70.766, -134.725
2061.428, 70.927, -135.272
2091.412, 71.085, -135.882
2121.832, 71.238, -136.551
2152.695, 71.385, -137.280
2184.007, 71.526, -138.071
2215.774, 71.659, -138.918
2248.003, 71.782, -139.822
2280.701, 71.891, -140.770
2313.874, 71.991, -141.766
2347.530, 72.084, -142.797
2381.676, 72.162, -143.849
2416.318, 72.224, -144.915
2451.464, 72.270, -145.988
2487.122, 72.299, -147.050
2523.298, 72.317, -148.101
2560.000, 72.321, -149.125
2597.236, 72.313, -150.112
2635.014, 72.294, -151.056
2673.341, 72.259, -151.932
2712.226, 72.210, -152.739
2751.676, 72.151, -153.466
2791.700, 72.079, -154.101
2832.306, 72.005, -154.648
2873.503, 71.928, -155.101
2915.299, 71.843, -155.445
2957.703, 71.754, -155.686
3000.724, 71.664, -155.817
3044.370, 71.574, -155.832
3088.652, 71.485, -155.727
3133.577, 71.400, -155.494
3179.156, 71.323, -155.136
3225.398, 71.253, -154.643
3272.312, 71.203, -154.031
3319.909, 71.177, -153.316
3368.198, 71.171, -152.525
3417.190, 71.184, -151.684
3466.894, 71.223, -150.819
3517.321, 71.292, -149.974
3568.482, 71.378, -149.154
3620.387, 71.483, -148.373
3673.046, 71.604, -147.613
3726.472, 71.747, -146.873
3780.675, 71.911, -146.176
3835.666, 72.097, -145.526
3891.457, 72.312, -144.965
3948.060, 72.553, -144.508
4005.486, 72.821, -144.172
4063.747, 73.121, -143.973
4122.855, 73.451, -143.973
4182.824, 73.806, -144.238
4243.664, 74.197, -144.834
4305.390, 74.607, -145.877
4368.013, 75.009, -147.380
4431.547, 75.408, -149.289
4496.005, 75.801, -151.660
4561.401, 76.169, -154.623
4627.749, 76.487, -158.189
4695.061, 76.729, -162.364
4763.352, 76.863, -167.022
4832.637, 76.864, -171.965
4902.929, 76.720, -176.948
4974.244, 76.430, 178.346
5046.596, 76.014, 174.126
5120.000, 75.494, 170.570
5194.472, 74.902, 167.830
5270.027, 74.282, 165.917
5346.682, 73.660, 164.782
5424.451, 73.056, 164.324
5503.352, 72.487, 164.442
5583.399, 71.960, 165.049
5664.612, 71.478, 166.058
5747.006, 71.052, 167.394
5830.598, 70.686, 168.999
5915.406, 70.379, 170.811
6001.447, 70.130, 172.771
6088.740, 69.939, 174.819
6177.303, 69.808, 176.921
6267.154, 69.750, 178.997
6358.312, 69.757, -179.011
6450.796, 69.829, -177.173
6544.625, 69.968, -175.579
6639.818, 70.174, -174.344
6736.397, 70.441, -173.596
6834.380, 70.753, -173.482
6933.789, 71.090, -174.140
7034.643, 71.420, -175.690
7136.964, 71.700, -178.209
7240.773, 71.875, 178.349
7346.093, 71.887, 174.222
7452.944, 71.701, 169.855
7561.350, 71.316, 165.777
7671.332, 70.769, 162.403
7782.915, 70.109, 159.907
7896.120, 69.376, 158.395
8010.971, 68.626, 158.020
8127.493, 67.903, 158.328
8245.711, 67.150, 159.457
8365.647, 66.445, 161.755
8487.328, 65.853, 164.842
8610.779, 65.378, 168.408
8736.026, 65.016, 172.302
8863.095, 64.770, 176.396
8992.011, 64.636, -179.422
9122.803, 64.614, -175.207
9255.497, 64.715, -171.003
9390.121, 64.957, -166.919
9526.704, 65.363, -163.134
9665.273, 65.952, -159.915
9805.857, 66.758, -157.671
9948.487, 67.793, -157.074
10093.191, 69.028, -159.251
10240.000, 70.279, -165.773
10388.944, 71.084, -177.615
10540.055, 70.904, 167.562
10693.363, 69.694, 155.267
10848.902, 67.954, 148.106
11006.703, 66.126, 145.740
11166.799, 64.477, 146.690
11329.224, 63.077, 149.702
11494.012, 61.922, 154.018
11661.195, 60.997, 159.181
11830.812, 60.287, 164.883
12002.895, 59.796, 170.877
12177.480, 59.515, 176.952
12354.606, 59.454, -177.107
12534.309, 59.632, -171.606
12716.624, 60.058, -166.995
12901.592, 60.737, -163.847
13089.250, 61.642, -163.062
13279.637, 62.656, -165.887
13472.794, 63.466, -173.475
13668.760, 63.569, 174.822
13867.577, 62.659, 163.131
14069.285, 60.997, 155.663
14273.928, 59.097, 153.159
14481.547, 57.283, 154.416
14692.186, 55.672, 158.260
14905.889, 54.304, 163.956
15122.700, 53.204, 171.048
15342.664, 52.422, 179.160
15565.829, 52.041, -172.313
15792.239, 52.122, -164.510
16021.942, 52.590, -159.124
16254.986, 53.129, -157.200
16491.422, 53.507, -157.776
16731.295, 53.584, -159.982
16974.656, 53.407, -162.000
17221.559, 53.119, -163.909
17472.053, 52.689, -165.731
17726.189, 52.144, -166.773
17984.021, 51.684, -166.600
18245.605, 51.710, -166.289
18510.994, 52.541, -171.623
18780.242, 53.022, 167.755
19053.408, 50.678, 135.624
19330.547, 44.264, 124.153
19611.715, 35.690, 155.129
19896.975, 31.264, -144.495
