* Measurement data measured by REW V5.19
* Source: ASIO MOTU M Series, In 1
* Format: 1M Log Swept Sine, 1 sweep at -3.0 dBFS  With no timing reference
* Dated: 7 Feb, 2023 7:06:30 PM
* REW Settings:
*  C-weighting compensation: Off
*  Target level: 75.0 dB
* Note: ; 
* Measurement: Feb 7 19:06:30
* Smoothing: 1/48 octave
* Frequency Step: 1/48 octave
* Start Frequency: 10.1 Hz
*
* Freq(Hz), SPL(dB), Phase(degrees)
10.145, 57.152, -65.871
10.293, 57.282, -66.599
10.443, 57.415, -67.617
10.595, 57.613, -68.999
10.749, 57.811, -70.490
10.905, 57.950, -71.732
11.064, 58.061, -72.900
11.225, 58.176, -74.166
11.388, 58.285, -75.461
11.554, 58.380, -76.658
11.722, 58.464, -77.772
11.892, 58.543, -78.792
12.065, 58.620, -79.722
12.241, 58.704, -80.591
12.419, 58.794, -81.396
12.599, 58.891, -82.132
12.782, 58.997, -82.833
12.968, 59.117, -83.549
13.157, 59.246, -84.290
13.348, 59.384, -85.069
13.543, 59.524, -85.919
13.740, 59.667, -86.847
13.939, 59.803, -87.850
14.142, 59.930, -88.913
14.348, 60.042, -90.016
14.557, 60.140, -91.111
14.768, 60.221, -92.176
14.983, 60.290, -93.148
15.201, 60.354, -94.015
15.422, 60.417, -94.759
15.646, 60.491, -95.402
15.874, 60.580, -95.990
16.105, 60.689, -96.575
16.339, 60.814, -97.246
16.577, 60.946, -98.039
16.818, 61.077, -98.981
17.063, 61.194, -100.059
17.311, 61.288, -101.201
17.563, 61.358, -102.340
17.818, 61.405, -103.399
18.077, 61.442, -104.306
18.340, 61.484, -105.060
18.607, 61.543, -105.707
18.877, 61.628, -106.328
19.152, 61.737, -107.039
19.431, 61.859, -107.939
19.713, 61.976, -109.053
20.000, 62.069, -110.334
20.291, 62.126, -111.679
20.586, 62.147, -112.944
20.885, 62.141, -113.987
21.189, 62.133, -114.726
21.497, 62.153, -115.196
21.810, 62.221, -115.559
22.127, 62.337, -116.036
22.449, 62.479, -116.805
22.776, 62.611, -117.909
23.107, 62.699, -119.225
23.443, 62.730, -120.507
23.784, 62.720, -121.496
24.130, 62.709, -122.065
24.481, 62.742, -122.316
24.837, 62.840, -122.556
25.198, 62.983, -123.105
25.565, 63.118, -124.086
25.937, 63.200, -125.338
26.314, 63.213, -126.519
26.697, 63.185, -127.312
27.085, 63.172, -127.646
27.479, 63.222, -127.766
27.879, 63.334, -128.064
28.284, 63.463, -128.786
28.696, 63.556, -129.878
29.113, 63.585, -131.055
29.537, 63.560, -131.992
29.966, 63.521, -132.518
30.402, 63.513, -132.692
30.844, 63.564, -132.756
31.293, 63.665, -133.006
31.748, 63.785, -133.617
32.210, 63.879, -134.563
32.678, 63.923, -135.627
33.154, 63.920, -136.557
33.636, 63.903, -137.214
34.125, 63.905, -137.654
34.621, 63.937, -138.050
35.125, 63.991, -138.557
35.636, 64.047, -139.227
36.154, 64.086, -139.999
36.680, 64.103, -140.730
37.214, 64.118, -141.301
37.755, 64.156, -141.789
38.304, 64.214, -142.392
38.861, 64.256, -143.125
39.427, 64.275, -143.755
40.000, 64.307, -144.198
40.582, 64.367, -144.733
41.172, 64.405, -145.456
41.771, 64.403, -146.005
42.379, 64.429, -146.217
42.995, 64.517, -146.647
43.620, 64.576, -147.616
44.255, 64.545, -148.545
44.898, 64.504, -148.994
45.552, 64.518, -149.424
46.214, 64.521, -150.165
46.886, 64.481, -150.798
47.568, 64.456, -151.140
48.260, 64.471, -151.474
48.962, 64.509, -151.863
49.674, 64.579, -152.430
50.397, 64.631, -153.344
51.130, 64.622, -154.150
51.874, 64.625, -154.550
52.628, 64.672, -154.999
53.394, 64.704, -155.585
54.170, 64.723, -156.044
54.958, 64.748, -156.447
55.758, 64.782, -156.834
56.569, 64.825, -157.422
57.391, 64.811, -158.194
58.226, 64.764, -158.586
59.073, 64.765, -158.955
59.932, 64.731, -159.556
60.804, 64.691, -159.701
61.688, 64.748, -160.045
62.586, 64.754, -160.999
63.496, 64.699, -161.510
64.420, 64.702, -161.901
65.357, 64.668, -162.396
66.307, 64.668, -162.282
67.272, 64.787, -162.743
68.250, 64.784, -163.958
69.243, 64.700, -164.481
70.250, 64.674, -164.813
71.272, 64.640, -165.211
72.309, 64.622, -165.349
73.360, 64.666, -165.553
74.427, 64.693, -166.179
75.510, 64.669, -166.602
76.608, 64.627, -167.104
77.723, 64.523, -166.813
78.853, 64.639, -166.579
80.000, 64.651, -167.776
81.164, 64.602, -168.276
82.344, 64.579, -169.057
83.542, 64.552, -169.362
84.757, 64.580, -169.864
85.990, 64.575, -170.208
87.241, 64.585, -170.559
88.510, 64.566, -171.047
89.797, 64.510, -171.518
91.103, 64.474, -171.943
92.428, 64.452, -172.440
93.773, 64.454, -172.916
95.137, 64.452, -173.275
96.520, 64.455, -173.291
97.924, 64.450, -173.398
99.349, 64.458, -173.121
100.794, 64.454, -174.163
102.260, 64.312, -174.458
103.747, 64.281, -175.033
105.256, 64.233, -175.595
106.787, 64.199, -175.938
108.340, 64.210, -176.188
109.916, 64.190, -176.568
111.515, 64.152, -176.900
113.137, 64.108, -177.192
114.783, 64.070, -177.575
116.452, 64.022, -178.068
118.146, 63.959, -178.336
119.865, 63.914, -178.642
121.608, 63.867, -178.944
123.377, 63.801, -179.318
125.171, 63.750, -179.478
126.992, 63.692, -179.955
128.839, 63.603, 179.680
130.713, 63.526, 179.549
132.615, 63.486, 179.250
134.543, 63.413, 179.132
136.500, 63.342, 178.923
138.486, 63.252, 178.716
140.500, 63.139, 178.294
142.544, 62.990, 178.005
144.617, 62.850, 178.209
146.721, 62.770, 178.470
148.855, 62.633, 178.515
151.020, 62.471, 178.752
153.217, 62.319, 179.157
155.445, 62.214, 179.732
157.706, 62.093, -179.721
160.000, 61.983, -178.666
162.327, 61.925, -177.499
164.688, 61.891, -175.967
167.084, 61.950, -174.898
169.514, 62.014, -174.200
171.980, 62.064, -173.909
174.481, 62.109, -173.092
177.019, 62.080, -172.561
179.594, 62.114, -171.885
182.206, 62.140, -170.973
184.856, 62.286, -169.859
187.545, 62.424, -170.078
190.273, 62.474, -169.872
193.041, 62.706, -169.574
195.849, 62.814, -169.731
198.697, 62.870, -169.422
201.587, 62.968, -169.627
204.520, 63.055, -170.069
207.494, 63.136, -170.688
210.512, 63.173, -171.451
213.574, 63.197, -171.885
216.681, 63.236, -172.173
219.833, 63.257, -172.719
223.030, 63.238, -172.978
226.274, 63.242, -173.056
229.565, 63.232, -173.395
232.905, 63.254, -173.776
236.292, 63.296, -174.093
239.729, 63.280, -174.486
243.216, 63.264, -174.878
246.754, 63.251, -175.341
250.343, 63.224, -175.753
253.984, 63.182, -176.122
257.678, 63.128, -176.470
261.426, 63.093, -176.695
265.229, 63.041, -176.964
269.087, 62.991, -177.285
273.001, 62.936, -177.387
276.972, 62.866, -177.592
281.000, 62.799, -177.802
285.088, 62.737, -177.905
289.234, 62.668, -177.947
293.441, 62.594, -178.000
297.710, 62.524, -178.071
302.040, 62.461, -178.118
306.433, 62.395, -178.157
310.890, 62.317, -178.117
315.412, 62.245, -178.107
320.000, 62.165, -178.066
324.655, 62.090, -177.988
329.377, 62.008, -177.903
334.168, 61.930, -177.770
339.028, 61.854, -177.596
343.959, 61.755, -177.391
348.962, 61.655, -177.196
354.038, 61.565, -176.993
359.188, 61.461, -176.638
364.412, 61.348, -176.317
369.713, 61.235, -176.023
375.090, 61.113, -175.554
380.546, 60.995, -175.069
386.081, 60.878, -174.389
391.697, 60.785, -173.786
397.395, 60.644, -172.960
403.175, 60.524, -172.012
409.039, 60.424, -171.067
414.989, 60.315, -169.916
421.025, 60.200, -168.603
427.149, 60.134, -167.130
433.362, 60.095, -165.491
439.665, 60.097, -163.858
446.060, 60.116, -162.222
452.548, 60.160, -160.663
459.131, 60.223, -159.115
465.809, 60.331, -157.753
472.584, 60.449, -156.509
479.458, 60.577, -155.417
486.432, 60.707, -154.468
493.507, 60.853, -153.509
500.686, 60.988, -152.772
507.968, 61.143, -152.200
515.357, 61.274, -151.594
522.853, 61.404, -151.099
530.458, 61.543, -150.844
538.174, 61.656, -150.711
546.002, 61.764, -150.799
553.943, 61.839, -150.545
562.001, 61.931, -150.379
570.175, 61.998, -150.427
578.469, 62.049, -150.276
586.883, 62.098, -150.077
595.419, 62.146, -149.973
604.080, 62.191, -149.720
612.866, 62.216, -149.547
621.780, 62.229, -149.330
630.824, 62.182, -148.929
640.000, 62.186, -147.864
649.309, 62.280, -147.095
658.753, 62.365, -146.499
668.335, 62.444, -146.083
678.056, 62.518, -145.761
687.919, 62.598, -145.400
697.925, 62.645, -145.012
708.076, 62.700, -144.547
718.376, 62.769, -144.196
728.825, 62.843, -143.842
739.426, 62.875, -143.487
750.181, 62.898, -143.005
761.093, 62.982, -142.369
772.163, 63.079, -141.862
783.394, 63.133, -141.449
794.789, 63.200, -141.040
806.349, 63.279, -140.648
818.078, 63.343, -140.150
829.977, 63.398, -139.623
842.050, 63.463, -139.108
854.297, 63.537, -138.665
866.724, 63.604, -138.057
879.330, 63.683, -137.453
892.120, 63.756, -136.951
905.097, 63.838, -136.365
918.262, 63.913, -135.728
931.618, 63.999, -135.046
945.169, 64.109, -134.387
958.917, 64.227, -133.827
972.864, 64.343, -133.181
987.015, 64.464, -132.547
1001.371, 64.594, -131.938
1015.937, 64.731, -131.356
1030.714, 64.874, -130.826
1045.706, 65.018, -130.352
1060.916, 65.158, -129.837
1076.347, 65.310, -129.436
1092.003, 65.457, -129.069
1107.887, 65.601, -128.599
1124.001, 65.755, -128.330
1140.350, 65.921, -127.984
1156.937, 66.084, -127.646
1173.765, 66.242, -127.284
1190.838, 66.414, -127.031
1208.159, 66.577, -126.829
1225.732, 66.760, -126.596
1243.561, 66.949, -126.375
1261.649, 67.123, -126.259
1280.000, 67.309, -126.095
1298.618, 67.492, -126.022
1317.507, 67.679, -126.016
1336.670, 67.854, -126.054
1356.113, 68.035, -126.071
1375.838, 68.225, -126.149
1395.850, 68.424, -126.230
1416.153, 68.605, -126.344
1436.751, 68.787, -126.490
1457.649, 68.982, -126.664
1478.851, 69.182, -126.906
1500.362, 69.379, -127.161
1522.185, 69.575, -127.501
1544.326, 69.774, -127.846
1566.789, 69.972, -128.229
1589.578, 70.173, -128.698
1612.699, 70.375, -129.230
1636.156, 70.573, -129.858
1659.955, 70.774, -130.520
1684.099, 70.970, -131.283
1708.595, 71.159, -132.081
1733.447, 71.350, -132.898
1758.661, 71.531, -133.840
1784.241, 71.707, -134.854
1810.193, 71.872, -135.913
1836.523, 72.029, -137.023
1863.236, 72.178, -138.187
1890.338, 72.316, -139.403
1917.833, 72.445, -140.661
1945.729, 72.562, -141.967
1974.030, 72.666, -143.288
2002.743, 72.759, -144.645
2031.873, 72.839, -146.018
2061.428, 72.906, -147.400
2091.412, 72.960, -148.783
2121.832, 73.002, -150.146
2152.695, 73.030, -151.516
2184.007, 73.048, -152.845
2215.774, 73.053, -154.178
2248.003, 73.051, -155.483
2280.701, 73.037, -156.742
2313.874, 73.012, -157.964
2347.530, 72.974, -159.077
2381.676, 72.931, -160.238
2416.318, 72.882, -161.348
2451.464, 72.828, -162.435
2487.122, 72.762, -163.429
2523.298, 72.688, -164.360
2560.000, 72.607, -165.184
2597.236, 72.529, -166.064
2635.014, 72.444, -166.824
2673.341, 72.355, -167.521
2712.226, 72.262, -168.160
2751.676, 72.168, -168.741
2791.700, 72.075, -169.269
2832.306, 71.980, -169.744
2873.503, 71.883, -170.182
2915.299, 71.775, -170.606
2957.703, 71.686, -170.909
3000.724, 71.583, -171.106
3044.370, 71.475, -171.372
3088.652, 71.403, -171.603
3133.577, 71.309, -171.749
3179.156, 71.215, -171.824
3225.398, 71.101, -171.878
3272.312, 71.017, -171.841
3319.909, 70.944, -171.717
3368.198, 70.862, -171.575
3417.190, 70.786, -171.384
3466.894, 70.706, -171.180
3517.321, 70.646, -170.912
3568.482, 70.601, -170.517
3620.387, 70.558, -170.140
3673.046, 70.524, -169.732
3726.472, 70.504, -169.328
3780.675, 70.495, -168.895
3835.666, 70.501, -168.431
3891.457, 70.517, -168.006
3948.060, 70.547, -167.590
4005.486, 70.591, -167.195
4063.747, 70.648, -166.826
4122.855, 70.721, -166.498
4182.824, 70.809, -166.239
4243.664, 70.912, -166.107
4305.390, 71.034, -166.083
4368.013, 71.166, -166.158
4431.547, 71.306, -166.406
4496.005, 71.435, -166.836
4561.401, 71.576, -167.434
4627.749, 71.728, -168.263
4695.061, 71.844, -169.206
4763.352, 71.973, -170.352
4832.637, 72.098, -171.741
4902.929, 72.187, -173.369
4974.244, 72.233, -175.232
5046.596, 72.237, -177.196
5120.000, 72.180, -179.127
5194.472, 72.093, 178.811
5270.027, 71.941, 176.888
5346.682, 71.736, 175.098
5424.451, 71.502, 173.571
5503.352, 71.237, 172.300
5583.399, 70.961, 171.138
5664.612, 70.653, 170.278
5747.006, 70.329, 169.761
5830.598, 70.002, 169.500
5915.406, 69.677, 169.617
6001.447, 69.350, 170.169
6088.740, 69.120, 170.868
6177.303, 68.885, 171.344
6267.154, 68.659, 172.006
6358.312, 68.448, 172.787
6450.796, 68.249, 173.654
6544.625, 68.071, 174.621
6639.818, 67.919, 175.652
6736.397, 67.786, 176.694
6834.380, 67.671, 177.735
6933.789, 67.595, 178.710
7034.643, 67.531, 179.597
7136.964, 67.508, -179.501
7240.773, 67.487, -178.802
7346.093, 67.472, -178.271
7452.944, 67.450, -177.922
7561.350, 67.425, -177.711
7671.332, 67.381, -177.591
7782.915, 67.301, -177.507
7896.120, 67.187, -177.309
8010.971, 67.049, -176.848
8127.493, 66.910, -176.000
8245.711, 66.801, -174.745
8365.647, 66.763, -173.145
8487.328, 66.829, -171.411
8610.779, 67.022, -169.942
8736.026, 67.318, -169.291
8863.095, 67.640, -169.838
8992.011, 67.875, -171.540
9122.803, 67.932, -173.902
9255.497, 67.802, -176.142
9390.121, 67.542, -177.667
9526.704, 67.234, -178.376
9665.273, 66.955, -178.520
9805.857, 66.680, -178.044
9948.487, 66.474, -176.860
10093.191, 66.371, -175.329
10240.000, 66.400, -173.725
10388.944, 66.571, -172.316
10540.055, 66.889, -171.377
10693.363, 67.355, -171.342
10848.902, 67.943, -172.886
11006.703, 68.576, -176.747
11166.799, 69.039, 176.796
11329.224, 69.101, 168.138
11494.012, 68.607, 159.011
11661.195, 67.630, 151.448
11830.812, 66.350, 146.504
12002.895, 64.967, 144.114
12177.480, 63.602, 143.957
12354.606, 62.333, 145.556
12534.309, 61.201, 148.586
12716.624, 60.245, 152.423
12901.592, 59.470, 156.977
13089.250, 58.876, 162.011
13279.637, 58.464, 167.257
13472.794, 58.278, 172.699
13668.760, 58.326, 177.922
13867.577, 58.649, -177.357
14069.285, 59.282, -173.731
14273.928, 60.259, -172.227
14481.547, 61.547, -174.667
14692.186, 62.795, 176.093
14905.889, 63.134, 159.210
15122.700, 61.852, 141.305
15342.664, 59.348, 130.635
15565.829, 56.548, 127.790
15792.239, 53.955, 130.061
16021.942, 51.662, 135.679
16254.986, 49.641, 144.532
16491.422, 48.082, 156.892
16731.295, 47.532, 171.337
16974.656, 48.126, -178.299
17221.559, 48.688, -175.449
17472.053, 48.634, -174.799
17726.189, 48.308, -172.880
17984.021, 48.038, -170.077
18245.605, 47.941, -167.304
18510.994, 48.062, -166.076
18780.242, 48.114, -166.876
19053.408, 48.251, -168.997
19330.547, 48.488, -174.346
19611.715, 48.499, 174.859
19896.975, 47.834, 159.789
