* Measurement data measured by REW V5.19
* Source: ASIO MOTU M Series, In 1
* Format: 1M Log Swept Sine, 1 sweep at -3.0 dBFS  With no timing reference
* Dated: 6 Mar, 2023 3:26:53 PM
* REW Settings:
*  C-weighting compensation: Off
*  Target level: 75.0 dB
* Note: ; 
* Measurement: Mar 6 15:26:53
* Smoothing: 1/48 octave
* Frequency Step: 1/48 octave
* Start Frequency: 10.1 Hz
*
* Freq(Hz), SPL(dB), Phase(degrees)
10.145, 63.401, 50.980
10.293, 63.426, 50.461
10.443, 63.452, 49.764
10.595, 63.491, 48.853
10.749, 63.532, 47.904
10.905, 63.562, 47.183
11.064, 63.588, 46.543
11.225, 63.618, 45.817
11.388, 63.648, 45.055
11.554, 63.677, 44.326
11.722, 63.704, 43.616
11.892, 63.731, 42.919
12.065, 63.757, 42.231
12.241, 63.783, 41.533
12.419, 63.809, 40.835
12.599, 63.834, 40.159
12.782, 63.858, 39.492
12.968, 63.882, 38.818
13.157, 63.906, 38.148
13.348, 63.929, 37.490
13.543, 63.951, 36.835
13.740, 63.973, 36.181
13.939, 63.994, 35.533
14.142, 64.014, 34.891
14.348, 64.033, 34.257
14.557, 64.052, 33.632
14.768, 64.071, 33.016
14.983, 64.089, 32.410
15.201, 64.108, 31.813
15.422, 64.128, 31.221
15.646, 64.149, 30.631
15.874, 64.169, 30.042
16.105, 64.190, 29.450
16.339, 64.211, 28.857
16.577, 64.231, 28.266
16.818, 64.249, 27.678
17.063, 64.267, 27.097
17.311, 64.285, 26.524
17.563, 64.303, 25.958
17.818, 64.320, 25.399
18.077, 64.338, 24.842
18.340, 64.356, 24.286
18.607, 64.374, 23.732
18.877, 64.391, 23.178
19.152, 64.407, 22.627
19.431, 64.422, 22.080
19.713, 64.436, 21.536
20.000, 64.449, 20.998
20.291, 64.462, 20.465
20.586, 64.473, 19.941
20.885, 64.483, 19.431
21.189, 64.494, 18.938
21.497, 64.506, 18.460
21.810, 64.522, 17.986
22.127, 64.541, 17.502
22.449, 64.562, 16.992
22.776, 64.582, 16.450
23.107, 64.599, 15.883
23.443, 64.610, 15.309
23.784, 64.617, 14.748
24.130, 64.621, 14.212
24.481, 64.625, 13.700
24.837, 64.631, 13.198
25.198, 64.638, 12.695
25.565, 64.643, 12.189
25.937, 64.646, 11.693
26.314, 64.649, 11.218
26.697, 64.654, 10.766
27.085, 64.663, 10.318
27.479, 64.675, 9.848
27.879, 64.687, 9.345
28.284, 64.694, 8.825
28.696, 64.698, 8.314
29.113, 64.700, 7.824
29.537, 64.706, 7.338
29.966, 64.712, 6.829
30.402, 64.716, 6.291
30.844, 64.712, 5.759
31.293, 64.705, 5.277
31.748, 64.703, 4.852
32.210, 64.711, 4.443
32.678, 64.727, 3.988
33.154, 64.744, 3.470
33.636, 64.754, 2.922
34.125, 64.757, 2.394
34.621, 64.761, 1.901
35.125, 64.767, 1.420
35.636, 64.774, 0.927
36.154, 64.779, 0.424
36.680, 64.780, -0.075
37.214, 64.780, -0.562
37.755, 64.779, -1.045
38.304, 64.777, -1.530
38.861, 64.773, -2.013
39.427, 64.769, -2.491
40.000, 64.767, -2.975
40.582, 64.766, -3.477
41.172, 64.764, -3.995
41.771, 64.760, -4.510
42.379, 64.758, -5.008
42.995, 64.760, -5.508
43.620, 64.766, -6.045
44.255, 64.767, -6.625
44.898, 64.758, -7.202
45.552, 64.741, -7.725
46.214, 64.723, -8.184
46.886, 64.709, -8.604
47.568, 64.701, -9.022
48.260, 64.696, -9.474
48.962, 64.687, -9.962
49.674, 64.677, -10.447
50.397, 64.670, -10.941
51.130, 64.664, -11.484
51.874, 64.652, -12.020
52.628, 64.645, -12.525
53.394, 64.639, -13.063
54.170, 64.625, -13.532
54.958, 64.633, -13.919
55.758, 64.656, -14.545
56.569, 64.629, -15.322
57.391, 64.570, -15.793
58.226, 64.545, -16.103
59.073, 64.533, -16.571
59.932, 64.508, -17.100
60.804, 64.479, -17.619
61.688, 64.448, -18.118
62.586, 64.422, -18.600
63.496, 64.397, -19.094
64.420, 64.371, -19.565
65.357, 64.347, -20.024
66.307, 64.322, -20.457
67.272, 64.299, -20.876
68.250, 64.275, -21.284
69.243, 64.255, -21.676
70.250, 64.238, -22.075
71.272, 64.225, -22.472
72.309, 64.216, -22.889
73.360, 64.209, -23.322
74.427, 64.200, -23.792
75.510, 64.192, -24.249
76.608, 64.189, -24.768
77.723, 64.178, -25.309
78.853, 64.172, -25.810
80.000, 64.173, -26.333
81.164, 64.171, -26.893
82.344, 64.164, -27.420
83.542, 64.142, -27.986
84.757, 64.111, -28.289
85.990, 64.134, -28.804
87.241, 64.109, -29.677
88.510, 64.054, -30.450
89.797, 63.997, -31.113
91.103, 63.953, -31.732
92.428, 63.915, -32.317
93.773, 63.874, -32.881
95.137, 63.831, -33.337
96.520, 63.790, -33.790
97.924, 63.745, -34.211
99.349, 63.704, -34.606
100.794, 63.671, -34.985
102.260, 63.645, -35.354
103.747, 63.624, -35.705
105.256, 63.614, -36.058
106.787, 63.607, -36.494
108.340, 63.600, -37.011
109.916, 63.592, -37.556
111.515, 63.588, -38.177
113.137, 63.571, -38.847
114.783, 63.542, -39.411
116.452, 63.513, -40.030
118.146, 63.465, -40.622
119.865, 63.417, -41.176
121.608, 63.376, -41.743
123.377, 63.340, -42.291
125.171, 63.307, -42.821
126.992, 63.268, -43.295
128.839, 63.233, -43.777
130.713, 63.195, -44.314
132.615, 63.153, -44.852
134.543, 63.112, -45.363
136.500, 63.067, -45.803
138.486, 63.033, -46.220
140.500, 63.005, -46.727
142.544, 62.968, -47.266
144.617, 62.927, -47.664
146.721, 62.901, -47.996
148.855, 62.857, -48.481
151.020, 62.796, -48.955
153.217, 62.750, -49.389
155.445, 62.709, -49.932
157.706, 62.649, -50.318
160.000, 62.587, -50.665
162.327, 62.508, -51.014
164.688, 62.431, -51.275
167.084, 62.361, -51.475
169.514, 62.283, -51.587
171.980, 62.204, -51.547
174.481, 62.130, -51.356
177.019, 62.073, -51.111
179.594, 62.034, -50.639
182.206, 62.035, -50.103
184.856, 62.059, -49.437
187.545, 62.125, -48.663
190.273, 62.258, -48.048
193.041, 62.426, -47.726
195.849, 62.630, -47.636
198.697, 62.846, -47.953
201.587, 63.042, -48.642
204.520, 63.209, -49.594
207.494, 63.354, -50.661
210.512, 63.471, -51.852
213.574, 63.565, -53.112
216.681, 63.629, -54.357
219.833, 63.683, -55.639
223.030, 63.719, -57.011
226.274, 63.721, -58.291
229.565, 63.701, -59.446
232.905, 63.667, -60.620
236.292, 63.627, -61.678
239.729, 63.583, -62.595
243.216, 63.535, -63.431
246.754, 63.488, -64.187
250.343, 63.445, -64.910
253.984, 63.408, -65.586
257.678, 63.374, -66.250
261.426, 63.337, -66.900
265.229, 63.303, -67.485
269.087, 63.268, -68.090
273.001, 63.229, -68.690
276.972, 63.194, -69.240
281.000, 63.159, -69.779
285.088, 63.121, -70.322
289.234, 63.087, -70.855
293.441, 63.049, -71.327
297.710, 63.007, -71.824
302.040, 62.967, -72.294
306.433, 62.928, -72.705
310.890, 62.889, -73.118
315.412, 62.841, -73.493
320.000, 62.794, -73.887
324.655, 62.751, -74.255
329.377, 62.702, -74.571
334.168, 62.643, -74.839
339.028, 62.587, -75.089
343.959, 62.531, -75.261
348.962, 62.472, -75.390
354.038, 62.414, -75.440
359.188, 62.356, -75.468
364.412, 62.298, -75.428
369.713, 62.250, -75.334
375.090, 62.198, -75.178
380.546, 62.148, -74.961
386.081, 62.105, -74.599
391.697, 62.062, -74.190
397.395, 62.023, -73.754
403.175, 62.004, -73.126
409.039, 61.994, -72.406
414.989, 62.003, -71.645
421.025, 62.042, -70.792
427.149, 62.110, -69.983
433.362, 62.216, -69.154
439.665, 62.340, -68.466
446.060, 62.481, -67.900
452.548, 62.636, -67.499
459.131, 62.795, -67.281
465.809, 62.954, -67.161
472.584, 63.107, -67.174
479.458, 63.258, -67.312
486.432, 63.405, -67.570
493.507, 63.527, -67.899
500.686, 63.639, -68.299
507.968, 63.731, -68.738
515.357, 63.804, -69.146
522.853, 63.862, -69.455
530.458, 63.914, -69.718
538.174, 63.965, -69.888
546.002, 64.019, -69.971
553.943, 64.082, -70.011
562.001, 64.153, -70.048
570.175, 64.228, -70.121
578.469, 64.306, -70.241
586.883, 64.381, -70.402
595.419, 64.451, -70.618
604.080, 64.512, -70.853
612.866, 64.561, -71.057
621.780, 64.600, -71.281
630.824, 64.635, -71.484
640.000, 64.661, -71.630
649.309, 64.682, -71.708
658.753, 64.698, -71.724
668.335, 64.715, -71.691
678.056, 64.733, -71.606
687.919, 64.751, -71.497
697.925, 64.769, -71.335
708.076, 64.788, -71.129
718.376, 64.808, -70.881
728.825, 64.830, -70.598
739.426, 64.855, -70.275
750.181, 64.883, -69.931
761.093, 64.912, -69.547
772.163, 64.943, -69.143
783.394, 64.978, -68.706
794.789, 65.015, -68.247
806.349, 65.056, -67.761
818.078, 65.099, -67.242
829.977, 65.145, -66.703
842.050, 65.197, -66.148
854.297, 65.250, -65.578
866.724, 65.303, -64.964
879.330, 65.361, -64.346
892.120, 65.425, -63.696
905.097, 65.496, -63.024
918.262, 65.574, -62.358
931.618, 65.652, -61.667
945.169, 65.734, -60.983
958.917, 65.824, -60.312
972.864, 65.920, -59.649
987.015, 66.018, -59.003
1001.371, 66.119, -58.377
1015.937, 66.222, -57.771
1030.714, 66.324, -57.185
1045.706, 66.429, -56.612
1060.916, 66.532, -56.056
1076.347, 66.632, -55.496
1092.003, 66.730, -54.938
1107.887, 66.825, -54.378
1124.001, 66.920, -53.803
1140.350, 67.015, -53.227
1156.937, 67.108, -52.636
1173.765, 67.202, -52.035
1190.838, 67.295, -51.421
1208.159, 67.389, -50.793
1225.732, 67.483, -50.159
1243.561, 67.576, -49.514
1261.649, 67.669, -48.857
1280.000, 67.765, -48.208
1298.618, 67.866, -47.565
1317.507, 67.965, -46.914
1336.670, 68.059, -46.264
1356.113, 68.150, -45.598
1375.838, 68.242, -44.939
1395.850, 68.333, -44.256
1416.153, 68.420, -43.555
1436.751, 68.505, -42.819
1457.649, 68.594, -42.081
1478.851, 68.680, -41.302
1500.362, 68.765, -40.505
1522.185, 68.854, -39.689
1544.326, 68.946, -38.852
1566.789, 69.040, -37.999
1589.578, 69.137, -37.137
1612.699, 69.233, -36.254
1636.156, 69.332, -35.366
1659.955, 69.434, -34.469
1684.099, 69.538, -33.564
1708.595, 69.644, -32.653
1733.447, 69.754, -31.739
1758.661, 69.868, -30.827
1784.241, 69.986, -29.926
1810.193, 70.101, -29.026
1836.523, 70.218, -28.132
1863.236, 70.340, -27.264
1890.338, 70.462, -26.403
1917.833, 70.583, -25.561
1945.729, 70.706, -24.738
1974.030, 70.828, -23.936
2002.743, 70.949, -23.159
2031.873, 71.068, -22.411
2061.428, 71.183, -21.684
2091.412, 71.298, -20.995
2121.832, 71.411, -20.334
2152.695, 71.519, -19.703
2184.007, 71.622, -19.100
2215.774, 71.718, -18.523
2248.003, 71.806, -17.970
2280.701, 71.887, -17.436
2313.874, 71.959, -16.916
2347.530, 72.020, -16.404
2381.676, 72.073, -15.892
2416.318, 72.118, -15.382
2451.464, 72.149, -14.852
2487.122, 72.165, -14.302
2523.298, 72.170, -13.718
2560.000, 72.171, -13.110
2597.236, 72.162, -12.453
2635.014, 72.141, -11.748
2673.341, 72.112, -10.993
2712.226, 72.073, -10.176
2751.676, 72.032, -9.314
2791.700, 71.989, -8.401
2832.306, 71.942, -7.446
2873.503, 71.892, -6.457
2915.299, 71.838, -5.441
2957.703, 71.779, -4.400
3000.724, 71.714, -3.333
3044.370, 71.645, -2.238
3088.652, 71.568, -1.101
3133.577, 71.480, 0.091
3179.156, 71.385, 1.346
3225.398, 71.283, 2.674
3272.312, 71.176, 4.084
3319.909, 71.075, 5.566
3368.198, 70.974, 7.115
3417.190, 70.873, 8.725
3466.894, 70.780, 10.373
3517.321, 70.691, 12.053
3568.482, 70.608, 13.758
3620.387, 70.531, 15.483
3673.046, 70.460, 17.225
3726.472, 70.398, 18.978
3780.675, 70.348, 20.732
3835.666, 70.313, 22.472
3891.457, 70.295, 24.171
3948.060, 70.299, 25.794
4005.486, 70.327, 27.287
4063.747, 70.379, 28.589
4122.855, 70.453, 29.628
4182.824, 70.542, 30.329
4243.664, 70.635, 30.629
4305.390, 70.716, 30.485
4368.013, 70.768, 29.899
4431.547, 70.774, 28.917
4496.005, 70.718, 27.645
4561.401, 70.595, 26.216
4627.749, 70.415, 24.772
4695.061, 70.188, 23.436
4763.352, 69.931, 22.294
4832.637, 69.668, 21.379
4902.929, 69.417, 20.695
4974.244, 69.203, 20.226
5046.596, 69.043, 19.939
5120.000, 68.950, 19.796
5194.472, 68.935, 19.748
5270.027, 69.008, 19.742
5346.682, 69.172, 19.727
5424.451, 69.432, 19.654
5503.352, 69.775, 19.496
5583.399, 70.202, 19.229
5664.612, 70.715, 18.800
5747.006, 71.294, 18.159
5830.598, 71.937, 17.374
5915.406, 72.672, 16.283
6001.447, 73.462, 14.429
6088.740, 74.212, 11.373
6177.303, 74.768, 7.767
6267.154, 75.184, 4.405
6358.312, 75.497, 1.315
6450.796, 75.713, -1.431
6544.625, 75.837, -3.696
6639.818, 75.895, -5.406
6736.397, 75.910, -6.556
6834.380, 75.902, -7.203
6933.789, 75.882, -7.442
7034.643, 75.854, -7.388
7136.964, 75.810, -7.166
7240.773, 75.735, -6.828
7346.093, 75.612, -6.396
7452.944, 75.421, -5.824
7561.350, 75.145, -4.949
7671.332, 74.790, -3.598
7782.915, 74.376, -1.695
7896.120, 73.914, 0.839
8010.971, 73.413, 4.057
8127.493, 72.897, 7.921
8245.711, 72.369, 12.342
8365.647, 71.820, 17.395
8487.328, 71.280, 23.200
8610.779, 70.781, 29.564
8736.026, 70.315, 36.317
8863.095, 69.873, 43.411
8992.011, 69.450, 50.857
9122.803, 69.049, 58.644
9255.497, 68.673, 66.734
9390.121, 68.319, 75.105
9526.704, 67.986, 83.755
9665.273, 67.678, 92.681
9805.857, 67.394, 101.873
9948.487, 67.140, 111.314
10093.191, 66.925, 120.971
10240.000, 66.750, 130.809
10388.944, 66.609, 140.795
10540.055, 66.500, 150.910
10693.363, 66.436, 161.229
10848.902, 66.429, 171.471
11006.703, 66.436, -178.376
11166.799, 66.452, -168.211
11329.224, 66.471, -157.981
11494.012, 66.492, -147.591
11661.195, 66.521, -136.872
11830.812, 66.600, -125.591
12002.895, 66.826, -113.770
12177.480, 67.307, -102.102
12354.606, 68.052, -91.824
12534.309, 68.928, -84.129
12716.624, 69.704, -79.724
12901.592, 70.080, -78.311
13089.250, 69.815, -78.077
13279.637, 68.915, -76.182
13472.794, 67.661, -71.007
13668.760, 66.297, -62.698
13867.577, 64.983, -51.616
14069.285, 63.837, -38.392
14273.928, 62.920, -23.670
14481.547, 62.271, -8.006
14692.186, 61.926, 7.959
14905.889, 61.894, 23.430
15122.700, 62.147, 37.522
15342.664, 62.674, 48.879
15565.829, 63.016, 55.294
15792.239, 62.721, 58.862
16021.942, 61.554, 62.468
16254.986, 59.583, 71.188
16491.422, 57.817, 87.012
16731.295, 56.530, 101.870
16974.656, 55.086, 119.015
17221.559, 53.881, 138.428
17472.053, 52.982, 158.697
17726.189, 52.255, 179.179
17984.021, 51.618, -158.706
18245.605, 51.485, -134.572
18510.994, 52.082, -111.222
18780.242, 53.264, -90.728
19053.408, 54.845, -74.635
19330.547, 56.561, -64.232
19611.715, 57.977, -60.824
19896.975, 58.621, -62.898
