* Measurement data measured by REW V5.19
* Source: ASIO MOTU M Series, In 1
* Format: 1M Log Swept Sine, 1 sweep at -3.0 dBFS  With no timing reference
* Dated: 10 Mar, 2023 10:41:00 AM
* REW Settings:
*  C-weighting compensation: Off
*  Target level: 75.0 dB
* Note: ; 
* Measurement: Mar 10 10:41:00
* Smoothing: 1/48 octave
* Frequency Step: 1/48 octave
* Start Frequency: 10.1 Hz
*
* Freq(Hz), SPL(dB), Phase(degrees)
10.145, 65.585, -95.855
10.293, 65.663, -96.583
10.443, 65.744, -97.589
10.595, 65.867, -98.940
10.749, 65.990, -100.387
10.905, 66.078, -101.575
11.064, 66.147, -102.691
11.225, 66.216, -103.932
11.388, 66.279, -105.227
11.554, 66.329, -106.448
11.722, 66.367, -107.610
11.892, 66.400, -108.697
12.065, 66.427, -109.712
12.241, 66.458, -110.679
12.419, 66.491, -111.593
12.599, 66.529, -112.447
12.782, 66.572, -113.272
12.968, 66.624, -114.116
13.157, 66.679, -114.977
13.348, 66.737, -115.861
13.543, 66.793, -116.775
13.740, 66.848, -117.723
13.939, 66.897, -118.679
14.142, 66.942, -119.636
14.348, 66.982, -120.575
14.557, 67.021, -121.494
14.768, 67.060, -122.391
14.983, 67.101, -123.273
15.201, 67.144, -124.154
15.422, 67.189, -125.048
15.646, 67.234, -125.964
15.874, 67.276, -126.898
16.105, 67.315, -127.849
16.339, 67.348, -128.794
16.577, 67.376, -129.719
16.818, 67.401, -130.611
17.063, 67.426, -131.465
17.311, 67.453, -132.289
17.563, 67.484, -133.098
17.818, 67.519, -133.906
18.077, 67.555, -134.731
18.340, 67.590, -135.573
18.607, 67.622, -136.426
18.877, 67.650, -137.276
19.152, 67.673, -138.109
19.431, 67.695, -138.914
19.713, 67.716, -139.694
20.000, 67.738, -140.454
20.291, 67.761, -141.206
20.586, 67.784, -141.956
20.885, 67.807, -142.707
21.189, 67.829, -143.460
21.497, 67.849, -144.212
21.810, 67.868, -144.963
22.127, 67.885, -145.716
22.449, 67.900, -146.471
22.776, 67.912, -147.223
23.107, 67.921, -147.964
23.443, 67.928, -148.686
23.784, 67.934, -149.390
24.130, 67.942, -150.081
24.481, 67.951, -150.772
24.837, 67.959, -151.470
25.198, 67.967, -152.173
25.565, 67.972, -152.871
25.937, 67.976, -153.558
26.314, 67.979, -154.231
26.697, 67.983, -154.898
27.085, 67.987, -155.565
27.479, 67.989, -156.228
27.879, 67.989, -156.878
28.284, 67.990, -157.507
28.696, 67.991, -158.124
29.113, 67.995, -158.743
29.537, 67.999, -159.380
29.966, 67.999, -160.029
30.402, 67.996, -160.673
30.844, 67.989, -161.298
31.293, 67.983, -161.904
31.748, 67.977, -162.504
32.210, 67.971, -163.107
32.678, 67.964, -163.707
33.154, 67.957, -164.298
33.636, 67.950, -164.884
34.125, 67.943, -165.476
34.621, 67.935, -166.075
35.125, 67.924, -166.666
35.636, 67.912, -167.237
36.154, 67.901, -167.797
36.680, 67.891, -168.365
37.214, 67.877, -168.936
37.755, 67.860, -169.484
38.304, 67.843, -169.997
38.861, 67.830, -170.504
39.427, 67.819, -171.034
40.000, 67.804, -171.585
40.582, 67.784, -172.129
41.172, 67.763, -172.654
41.771, 67.743, -173.171
42.379, 67.722, -173.689
42.995, 67.700, -174.203
43.620, 67.678, -174.706
44.255, 67.657, -175.209
44.898, 67.635, -175.719
45.552, 67.612, -176.232
46.214, 67.585, -176.729
46.886, 67.558, -177.201
47.568, 67.533, -177.663
48.260, 67.510, -178.135
48.962, 67.483, -178.616
49.674, 67.454, -179.090
50.397, 67.424, -179.538
51.130, 67.396, -179.978
51.874, 67.370, 179.561
52.628, 67.338, 179.094
53.394, 67.305, 178.667
54.170, 67.277, 178.237
54.958, 67.246, 177.764
55.758, 67.203, 177.324
56.569, 67.163, 176.955
57.391, 67.128, 176.587
58.226, 67.093, 176.216
59.073, 67.060, 175.862
59.932, 67.030, 175.477
60.804, 66.997, 175.066
61.688, 66.961, 174.667
62.586, 66.926, 174.255
63.496, 66.886, 173.842
64.420, 66.844, 173.456
65.357, 66.802, 173.078
66.307, 66.758, 172.722
67.272, 66.715, 172.399
68.250, 66.677, 172.075
69.243, 66.640, 171.746
70.250, 66.606, 171.402
71.272, 66.570, 171.030
72.309, 66.532, 170.647
73.360, 66.491, 170.256
74.427, 66.446, 169.871
75.510, 66.400, 169.495
76.608, 66.351, 169.122
77.723, 66.301, 168.759
78.853, 66.250, 168.403
80.000, 66.197, 168.053
81.164, 66.143, 167.714
82.344, 66.090, 167.385
83.542, 66.035, 167.048
84.757, 65.979, 166.723
85.990, 65.924, 166.386
87.241, 65.866, 166.035
88.510, 65.805, 165.695
89.797, 65.743, 165.361
91.103, 65.677, 165.032
92.428, 65.607, 164.708
93.773, 65.533, 164.382
95.137, 65.454, 164.046
96.520, 65.376, 163.691
97.924, 65.279, 163.296
99.349, 65.186, 163.123
100.794, 65.111, 162.867
102.260, 65.021, 162.620
103.747, 64.923, 162.417
105.256, 64.818, 162.217
106.787, 64.703, 162.030
108.340, 64.583, 161.878
109.916, 64.459, 161.752
111.515, 64.325, 161.737
113.137, 64.193, 161.800
114.783, 64.046, 161.900
116.452, 63.893, 162.125
118.146, 63.740, 162.440
119.865, 63.579, 162.862
121.608, 63.427, 163.658
123.377, 63.309, 164.579
125.171, 63.206, 165.581
126.992, 63.116, 166.665
128.839, 63.039, 167.844
130.713, 62.990, 169.247
132.615, 62.993, 170.821
134.543, 63.057, 172.499
136.500, 63.212, 174.162
138.486, 63.455, 175.435
140.500, 63.766, 176.098
142.544, 64.078, 175.892
144.617, 64.337, 175.091
146.721, 64.529, 173.837
148.855, 64.642, 172.389
151.020, 64.691, 170.976
153.217, 64.691, 169.677
155.445, 64.647, 168.502
157.706, 64.578, 167.471
160.000, 64.495, 166.568
162.327, 64.403, 165.844
164.688, 64.299, 165.242
167.084, 64.182, 164.735
169.514, 64.061, 164.300
171.980, 63.938, 163.980
174.481, 63.816, 163.831
177.019, 63.691, 163.808
179.594, 63.572, 163.913
182.206, 63.470, 164.160
184.856, 63.385, 164.579
187.545, 63.334, 164.880
190.273, 63.300, 165.108
193.041, 63.284, 165.269
195.849, 63.276, 165.259
198.697, 63.243, 165.096
201.587, 63.199, 164.930
204.520, 63.153, 164.764
207.494, 63.096, 164.626
210.512, 63.031, 164.507
213.574, 62.956, 164.384
216.681, 62.882, 164.330
219.833, 62.808, 164.368
223.030, 62.731, 164.451
226.274, 62.661, 164.576
229.565, 62.592, 164.745
232.905, 62.545, 164.852
236.292, 62.497, 164.852
239.729, 62.459, 164.883
243.216, 62.413, 164.806
246.754, 62.352, 164.680
250.343, 62.286, 164.586
253.984, 62.205, 164.511
257.678, 62.120, 164.442
261.426, 62.030, 164.394
265.229, 61.935, 164.381
269.087, 61.839, 164.427
273.001, 61.740, 164.502
276.972, 61.637, 164.594
281.000, 61.537, 164.723
285.088, 61.438, 164.858
289.234, 61.326, 165.063
293.441, 61.216, 165.343
297.710, 61.108, 165.617
302.040, 60.998, 165.919
306.433, 60.892, 166.257
310.890, 60.782, 166.658
315.412, 60.674, 167.040
320.000, 60.564, 167.409
324.655, 60.454, 167.857
329.377, 60.349, 168.372
334.168, 60.229, 168.818
339.028, 60.110, 169.370
343.959, 59.996, 170.000
348.962, 59.887, 170.672
354.038, 59.772, 171.383
359.188, 59.655, 172.079
364.412, 59.534, 172.846
369.713, 59.411, 173.763
375.090, 59.284, 174.777
380.546, 59.161, 175.923
386.081, 59.068, 177.204
391.697, 58.982, 178.555
397.395, 58.911, -179.986
403.175, 58.868, -178.297
409.039, 58.870, -176.697
414.989, 58.901, -175.177
421.025, 58.958, -173.752
427.149, 59.037, -172.498
433.362, 59.122, -171.456
439.665, 59.211, -170.515
446.060, 59.289, -169.652
452.548, 59.358, -168.908
459.131, 59.429, -168.203
465.809, 59.491, -167.637
472.584, 59.546, -167.063
479.458, 59.596, -166.488
486.432, 59.630, -165.943
493.507, 59.663, -165.382
500.686, 59.683, -164.763
507.968, 59.701, -164.020
515.357, 59.727, -163.223
522.853, 59.762, -162.381
530.458, 59.815, -161.476
538.174, 59.883, -160.614
546.002, 59.968, -159.849
553.943, 60.066, -159.169
562.001, 60.165, -158.625
570.175, 60.263, -158.203
578.469, 60.355, -157.867
586.883, 60.434, -157.607
595.419, 60.503, -157.430
604.080, 60.548, -157.310
612.866, 60.581, -157.122
621.780, 60.595, -156.894
630.824, 60.601, -156.612
640.000, 60.602, -156.242
649.309, 60.603, -155.809
658.753, 60.601, -155.311
668.335, 60.602, -154.782
678.056, 60.607, -154.230
687.919, 60.614, -153.638
697.925, 60.620, -153.005
708.076, 60.620, -152.329
718.376, 60.623, -151.571
728.825, 60.630, -150.784
739.426, 60.646, -149.952
750.181, 60.668, -149.066
761.093, 60.696, -148.123
772.163, 60.731, -147.153
783.394, 60.774, -146.140
794.789, 60.827, -145.098
806.349, 60.891, -144.047
818.078, 60.967, -142.982
829.977, 61.056, -141.914
842.050, 61.157, -140.845
854.297, 61.274, -139.817
866.724, 61.401, -138.834
879.330, 61.538, -137.904
892.120, 61.683, -137.053
905.097, 61.833, -136.279
918.262, 61.986, -135.576
931.618, 62.137, -134.940
945.169, 62.286, -134.345
958.917, 62.437, -133.814
972.864, 62.586, -133.329
987.015, 62.731, -132.877
1001.371, 62.874, -132.454
1015.937, 63.013, -132.046
1030.714, 63.149, -131.650
1045.706, 63.284, -131.263
1060.916, 63.416, -130.878
1076.347, 63.548, -130.490
1092.003, 63.679, -130.108
1107.887, 63.808, -129.704
1124.001, 63.938, -129.303
1140.350, 64.070, -128.888
1156.937, 64.204, -128.468
1173.765, 64.341, -128.039
1190.838, 64.481, -127.610
1208.159, 64.626, -127.180
1225.732, 64.775, -126.754
1243.561, 64.929, -126.344
1261.649, 65.087, -125.949
1280.000, 65.249, -125.577
1298.618, 65.414, -125.230
1317.507, 65.584, -124.919
1336.670, 65.753, -124.617
1356.113, 65.922, -124.328
1375.838, 66.091, -124.056
1395.850, 66.260, -123.788
1416.153, 66.429, -123.519
1436.751, 66.605, -123.265
1457.649, 66.785, -123.013
1478.851, 66.969, -122.768
1500.362, 67.157, -122.532
1522.185, 67.349, -122.309
1544.326, 67.547, -122.102
1566.789, 67.750, -121.908
1589.578, 67.958, -121.733
1612.699, 68.172, -121.577
1636.156, 68.391, -121.440
1659.955, 68.617, -121.325
1684.099, 68.851, -121.234
1708.595, 69.092, -121.172
1733.447, 69.343, -121.143
1758.661, 69.602, -121.161
1784.241, 69.872, -121.230
1810.193, 70.151, -121.360
1836.523, 70.440, -121.561
1863.236, 70.739, -121.844
1890.338, 71.047, -122.220
1917.833, 71.365, -122.696
1945.729, 71.693, -123.290
1974.030, 72.031, -124.019
2002.743, 72.373, -124.883
2031.873, 72.719, -125.911
2061.428, 73.069, -127.114
2091.412, 73.420, -128.511
2121.832, 73.768, -130.117
2152.695, 74.111, -131.944
2184.007, 74.442, -134.007
2215.774, 74.757, -136.310
2248.003, 75.049, -138.853
2280.701, 75.311, -141.627
2313.874, 75.537, -144.609
2347.530, 75.717, -147.769
2381.676, 75.846, -151.054
2416.318, 75.926, -154.417
2451.464, 75.952, -157.790
2487.122, 75.925, -161.111
2523.298, 75.845, -164.317
2560.000, 75.719, -167.354
2597.236, 75.553, -170.183
2635.014, 75.354, -172.771
2673.341, 75.128, -175.100
2712.226, 74.883, -177.161
2751.676, 74.626, -178.954
2791.700, 74.363, 179.509
2832.306, 74.099, 178.219
2873.503, 73.838, 177.160
2915.299, 73.584, 176.314
2957.703, 73.340, 175.667
3000.724, 73.109, 175.195
3044.370, 72.893, 174.882
3088.652, 72.695, 174.713
3133.577, 72.515, 174.663
3179.156, 72.356, 174.713
3225.398, 72.216, 174.852
3272.312, 72.098, 175.068
3319.909, 72.003, 175.346
3368.198, 71.932, 175.673
3417.190, 71.890, 176.024
3466.894, 71.878, 176.383
3517.321, 71.893, 176.737
3568.482, 71.938, 177.047
3620.387, 72.017, 177.283
3673.046, 72.132, 177.391
3726.472, 72.288, 177.312
3780.675, 72.478, 176.950
3835.666, 72.694, 176.294
3891.457, 72.943, 175.240
3948.060, 73.205, 173.563
4005.486, 73.440, 171.207
4063.747, 73.606, 168.289
4122.855, 73.673, 165.044
4182.824, 73.646, 161.802
4243.664, 73.554, 158.611
4305.390, 73.399, 155.621
4368.013, 73.228, 152.917
4431.547, 73.048, 150.137
4496.005, 72.833, 147.228
4561.401, 72.565, 144.299
4627.749, 72.245, 141.397
4695.061, 71.862, 138.565
4763.352, 71.410, 135.934
4832.637, 70.896, 133.651
4902.929, 70.333, 131.838
4974.244, 69.739, 130.533
5046.596, 69.135, 129.724
5120.000, 68.533, 129.407
5194.472, 67.949, 129.523
5270.027, 67.389, 130.008
5346.682, 66.855, 130.829
5424.451, 66.354, 131.947
5503.352, 65.889, 133.325
5583.399, 65.465, 134.916
5664.612, 65.082, 136.685
5747.006, 64.742, 138.591
5830.598, 64.447, 140.594
5915.406, 64.193, 142.672
6001.447, 63.990, 144.781
6088.740, 63.837, 146.895
6177.303, 63.738, 148.981
6267.154, 63.699, 150.973
6358.312, 63.717, 152.803
6450.796, 63.795, 154.374
6544.625, 63.931, 155.579
6639.818, 64.119, 156.299
6736.397, 64.347, 156.404
6834.380, 64.591, 155.775
6933.789, 64.818, 154.515
7034.643, 65.147, 152.548
7136.964, 65.378, 148.027
7240.773, 65.295, 142.849
7346.093, 64.992, 137.452
7452.944, 64.438, 132.152
7561.350, 63.646, 127.540
7671.332, 62.666, 124.100
7782.915, 61.569, 122.107
7896.120, 60.435, 121.589
8010.971, 59.333, 122.317
8127.493, 58.299, 123.969
8245.711, 57.331, 126.245
8365.647, 56.415, 129.034
8487.328, 55.546, 132.316
8610.779, 54.729, 136.056
8736.026, 53.967, 140.211
8863.095, 53.266, 144.719
8992.011, 52.615, 149.539
9122.803, 52.025, 154.656
9255.497, 51.497, 160.032
9390.121, 51.032, 165.635
9526.704, 50.634, 171.426
9665.273, 50.308, 177.375
9805.857, 50.052, -176.592
9948.487, 49.863, -170.479
10093.191, 49.744, -164.278
10240.000, 49.702, -157.994
10388.944, 49.744, -151.663
10540.055, 49.876, -145.324
10693.363, 50.103, -138.967
10848.902, 50.449, -132.642
11006.703, 50.919, -126.472
11166.799, 51.531, -120.546
11329.224, 52.298, -114.999
11494.012, 53.255, -110.056
11661.195, 54.426, -106.095
11830.812, 55.839, -103.769
12002.895, 57.477, -104.141
12177.480, 59.188, -108.832
12354.606, 60.530, -119.179
12534.309, 60.931, -133.500
12716.624, 60.229, -146.334
12901.592, 58.898, -153.818
13089.250, 57.521, -156.230
13279.637, 56.439, -155.410
13472.794, 55.736, -153.208
13668.760, 55.387, -150.774
13867.577, 55.392, -149.122
14069.285, 55.680, -149.637
14273.928, 56.023, -153.926
14481.547, 55.970, -162.635
14692.186, 55.031, -173.207
14905.889, 53.157, 179.268
15122.700, 50.788, 177.574
15342.664, 48.439, -178.742
15565.829, 46.401, -171.147
15792.239, 44.800, -160.976
16021.942, 43.671, -149.280
16254.986, 43.047, -136.538
16491.422, 43.082, -124.494
16731.295, 43.406, -114.337
16974.656, 44.059, -104.927
17221.559, 45.126, -97.118
17472.053, 46.599, -92.022
17726.189, 48.439, -90.853
17984.021, 50.611, -95.823
18245.605, 52.551, -111.978
18510.994, 52.666, -140.108
18780.242, 49.993, -163.654
19053.408, 46.057, -171.424
19330.547, 42.509, -169.428
19611.715, 39.680, -163.098
19896.975, 37.581, -155.806
