* Measurement data measured by REW V5.19
* Source: ASIO MOTU M Series, In 1
* Format: 1M Log Swept Sine, 1 sweep at -3.0 dBFS  With no timing reference
* Dated: 6 Mar, 2023 3:48:01 PM
* REW Settings:
*  C-weighting compensation: Off
*  Target level: 75.0 dB
* Note: ; 
* Measurement: Mar 6 15:48:01
* Smoothing: 1/48 octave
* Frequency Step: 1/48 octave
* Start Frequency: 10.1 Hz
*
* Freq(Hz), SPL(dB), Phase(degrees)
10.145, 64.346, 85.091
10.293, 64.411, 84.314
10.443, 64.479, 83.269
10.595, 64.583, 81.898
10.749, 64.690, 80.466
10.905, 64.773, 79.366
11.064, 64.845, 78.380
11.225, 64.926, 77.254
11.388, 65.010, 76.067
11.554, 65.090, 74.917
11.722, 65.166, 73.790
11.892, 65.240, 72.675
12.065, 65.312, 71.569
12.241, 65.383, 70.447
12.419, 65.453, 69.321
12.599, 65.520, 68.226
12.782, 65.586, 67.143
12.968, 65.651, 66.049
13.157, 65.715, 64.961
13.348, 65.777, 63.889
13.543, 65.838, 62.819
13.740, 65.898, 61.749
13.939, 65.956, 60.683
14.142, 66.013, 59.622
14.348, 66.067, 58.567
14.557, 66.120, 57.519
14.768, 66.171, 56.480
14.983, 66.221, 55.456
15.201, 66.269, 54.446
15.422, 66.317, 53.448
15.646, 66.366, 52.462
15.874, 66.415, 51.481
16.105, 66.465, 50.500
16.339, 66.514, 49.514
16.577, 66.563, 48.521
16.818, 66.609, 47.522
17.063, 66.653, 46.522
17.311, 66.695, 45.526
17.563, 66.733, 44.540
17.818, 66.771, 43.567
18.077, 66.807, 42.604
18.340, 66.844, 41.644
18.607, 66.880, 40.684
18.877, 66.915, 39.718
19.152, 66.947, 38.748
19.431, 66.976, 37.781
19.713, 67.003, 36.826
20.000, 67.028, 35.885
20.291, 67.054, 34.955
20.586, 67.080, 34.025
20.885, 67.107, 33.082
21.189, 67.132, 32.118
21.497, 67.152, 31.140
21.810, 67.166, 30.169
22.127, 67.173, 29.234
22.449, 67.180, 28.352
22.776, 67.191, 27.519
23.107, 67.209, 26.706
23.443, 67.236, 25.873
23.784, 67.266, 24.990
24.130, 67.294, 24.055
24.481, 67.315, 23.092
24.837, 67.329, 22.139
25.198, 67.338, 21.218
25.565, 67.348, 20.328
25.937, 67.360, 19.447
26.314, 67.373, 18.556
26.697, 67.383, 17.656
27.085, 67.388, 16.765
27.479, 67.392, 15.902
27.879, 67.396, 15.067
28.284, 67.403, 14.235
28.696, 67.412, 13.386
29.113, 67.417, 12.518
29.537, 67.418, 11.651
29.966, 67.416, 10.807
30.402, 67.415, 9.982
30.844, 67.416, 9.155
31.293, 67.416, 8.311
31.748, 67.413, 7.460
32.210, 67.407, 6.621
32.678, 67.401, 5.800
33.154, 67.397, 4.979
33.636, 67.394, 4.139
34.125, 67.387, 3.282
34.621, 67.375, 2.433
35.125, 67.361, 1.608
35.636, 67.348, 0.801
36.154, 67.337, -0.005
36.680, 67.326, -0.819
37.214, 67.313, -1.635
37.755, 67.299, -2.444
38.304, 67.287, -3.251
38.861, 67.274, -4.069
39.427, 67.260, -4.902
40.000, 67.242, -5.732
40.582, 67.221, -6.538
41.172, 67.202, -7.321
41.771, 67.186, -8.108
42.379, 67.168, -8.911
42.995, 67.148, -9.709
43.620, 67.129, -10.497
44.255, 67.109, -11.300
44.898, 67.084, -12.110
45.552, 67.055, -12.880
46.214, 67.033, -13.617
46.886, 67.017, -14.397
47.568, 66.996, -15.236
48.260, 66.967, -16.060
48.962, 66.938, -16.848
49.674, 66.912, -17.647
50.397, 66.883, -18.461
51.130, 66.851, -19.264
51.874, 66.817, -20.054
52.628, 66.782, -20.819
53.394, 66.750, -21.574
54.170, 66.718, -22.346
54.958, 66.684, -23.107
55.758, 66.652, -23.865
56.569, 66.617, -24.660
57.391, 66.574, -25.414
58.226, 66.540, -26.116
59.073, 66.513, -26.889
59.932, 66.475, -27.695
60.804, 66.434, -28.446
61.688, 66.400, -29.191
62.586, 66.368, -29.972
63.496, 66.335, -30.787
64.420, 66.297, -31.616
65.357, 66.255, -32.439
66.307, 66.211, -33.249
67.272, 66.166, -34.042
68.250, 66.120, -34.816
69.243, 66.076, -35.589
70.250, 66.028, -36.379
71.272, 65.978, -37.143
72.309, 65.931, -37.913
73.360, 65.883, -38.703
74.427, 65.834, -39.512
75.510, 65.778, -40.314
76.608, 65.723, -41.063
77.723, 65.672, -41.811
78.853, 65.623, -42.566
80.000, 65.571, -43.365
81.164, 65.512, -44.160
82.344, 65.451, -44.937
83.542, 65.390, -45.689
84.757, 65.335, -46.445
85.990, 65.277, -47.216
87.241, 65.217, -47.947
88.510, 65.161, -48.686
89.797, 65.099, -49.442
91.103, 65.039, -50.175
92.428, 64.976, -50.965
93.773, 64.908, -51.705
95.137, 64.846, -52.452
96.520, 64.774, -53.186
97.924, 64.712, -53.878
99.349, 64.640, -54.606
100.794, 64.573, -55.307
102.260, 64.507, -55.952
103.747, 64.457, -56.720
105.256, 64.384, -57.384
106.787, 64.335, -58.017
108.340, 64.279, -58.765
109.916, 64.220, -59.526
111.515, 64.154, -60.388
113.137, 64.073, -61.143
114.783, 64.004, -61.802
116.452, 63.931, -62.524
118.146, 63.838, -63.275
119.865, 63.753, -63.825
121.608, 63.702, -64.820
123.377, 63.608, -65.722
125.171, 63.521, -66.503
126.992, 63.429, -67.162
128.839, 63.338, -67.810
130.713, 63.243, -68.507
132.615, 63.139, -69.204
134.543, 63.024, -69.783
136.500, 62.925, -70.274
138.486, 62.817, -70.972
140.500, 62.725, -71.335
142.544, 62.612, -71.979
144.617, 62.511, -72.188
146.721, 62.390, -72.503
148.855, 62.250, -72.677
151.020, 62.145, -72.800
153.217, 62.058, -73.089
155.445, 61.992, -72.931
157.706, 61.927, -72.816
160.000, 61.882, -72.441
162.327, 61.808, -72.278
164.688, 61.765, -71.938
167.084, 61.810, -71.173
169.514, 62.008, -70.589
171.980, 62.122, -70.732
174.481, 62.209, -70.330
177.019, 62.408, -70.687
179.594, 62.573, -71.961
182.206, 62.726, -73.210
184.856, 62.851, -74.234
187.545, 62.949, -75.541
190.273, 62.993, -77.203
193.041, 63.035, -78.856
195.849, 63.054, -80.349
198.697, 63.019, -81.834
201.587, 62.969, -83.230
204.520, 62.927, -84.588
207.494, 62.868, -85.871
210.512, 62.804, -87.103
213.574, 62.733, -88.242
216.681, 62.667, -89.171
219.833, 62.609, -90.134
223.030, 62.519, -91.192
226.274, 62.436, -92.160
229.565, 62.364, -93.093
232.905, 62.286, -93.941
236.292, 62.206, -94.751
239.729, 62.127, -95.512
243.216, 62.052, -96.206
246.754, 61.983, -96.812
250.343, 61.923, -97.390
253.984, 61.875, -97.976
257.678, 61.837, -98.529
261.426, 61.806, -99.092
265.229, 61.780, -99.745
269.087, 61.761, -100.450
273.001, 61.748, -101.121
276.972, 61.734, -101.895
281.000, 61.699, -102.675
285.088, 61.673, -103.511
289.234, 61.640, -104.400
293.441, 61.600, -105.239
297.710, 61.554, -106.094
302.040, 61.502, -106.910
306.433, 61.443, -107.658
310.890, 61.385, -108.406
315.412, 61.327, -109.125
320.000, 61.269, -109.790
324.655, 61.209, -110.418
329.377, 61.147, -111.027
334.168, 61.091, -111.608
339.028, 61.038, -112.154
343.959, 60.984, -112.674
348.962, 60.933, -113.202
354.038, 60.881, -113.739
359.188, 60.831, -114.261
364.412, 60.779, -114.756
369.713, 60.726, -115.233
375.090, 60.670, -115.693
380.546, 60.611, -116.108
386.081, 60.556, -116.489
391.697, 60.495, -116.821
397.395, 60.438, -117.124
403.175, 60.380, -117.394
409.039, 60.321, -117.589
414.989, 60.260, -117.728
421.025, 60.201, -117.790
427.149, 60.143, -117.769
433.362, 60.092, -117.645
439.665, 60.047, -117.426
446.060, 60.014, -117.101
452.548, 59.995, -116.673
459.131, 59.996, -116.143
465.809, 60.025, -115.523
472.584, 60.084, -114.868
479.458, 60.180, -114.175
486.432, 60.323, -113.609
493.507, 60.494, -113.253
500.686, 60.691, -113.090
507.968, 60.885, -113.183
515.357, 61.092, -113.553
522.853, 61.276, -114.131
530.458, 61.442, -114.900
538.174, 61.583, -115.764
546.002, 61.702, -116.663
553.943, 61.796, -117.548
562.001, 61.875, -118.405
570.175, 61.936, -119.174
578.469, 61.987, -119.875
586.883, 62.038, -120.498
595.419, 62.088, -121.038
604.080, 62.143, -121.522
612.866, 62.204, -121.967
621.780, 62.270, -122.399
630.824, 62.340, -122.822
640.000, 62.414, -123.239
649.309, 62.490, -123.647
658.753, 62.569, -124.034
668.335, 62.653, -124.408
678.056, 62.744, -124.776
687.919, 62.843, -125.153
697.925, 62.949, -125.551
708.076, 63.061, -125.991
718.376, 63.178, -126.485
728.825, 63.294, -127.038
739.426, 63.408, -127.637
750.181, 63.518, -128.270
761.093, 63.623, -128.927
772.163, 63.723, -129.591
783.394, 63.820, -130.259
794.789, 63.913, -130.917
806.349, 64.004, -131.583
818.078, 64.087, -132.246
829.977, 64.164, -132.833
842.050, 64.249, -133.351
854.297, 64.341, -133.875
866.724, 64.436, -134.407
879.330, 64.533, -134.938
892.120, 64.630, -135.472
905.097, 64.730, -136.005
918.262, 64.830, -136.531
931.618, 64.929, -137.049
945.169, 65.028, -137.556
958.917, 65.132, -138.057
972.864, 65.242, -138.571
987.015, 65.357, -139.117
1001.371, 65.476, -139.699
1015.937, 65.597, -140.319
1030.714, 65.719, -140.971
1045.706, 65.841, -141.647
1060.916, 65.964, -142.349
1076.347, 66.086, -143.081
1092.003, 66.207, -143.840
1107.887, 66.326, -144.627
1124.001, 66.445, -145.440
1140.350, 66.565, -146.275
1156.937, 66.685, -147.132
1173.765, 66.806, -148.012
1190.838, 66.928, -148.921
1208.159, 67.049, -149.855
1225.732, 67.171, -150.813
1243.561, 67.292, -151.795
1261.649, 67.413, -152.800
1280.000, 67.533, -153.826
1298.618, 67.652, -154.872
1317.507, 67.771, -155.934
1336.670, 67.888, -157.010
1356.113, 68.006, -158.098
1375.838, 68.122, -159.200
1395.850, 68.239, -160.313
1416.153, 68.354, -161.439
1436.751, 68.468, -162.576
1457.649, 68.581, -163.722
1478.851, 68.694, -164.873
1500.362, 68.805, -166.028
1522.185, 68.917, -167.189
1544.326, 69.028, -168.353
1566.789, 69.139, -169.520
1589.578, 69.251, -170.688
1612.699, 69.362, -171.861
1636.156, 69.474, -173.039
1659.955, 69.587, -174.224
1684.099, 69.700, -175.417
1708.595, 69.815, -176.617
1733.447, 69.930, -177.829
1758.661, 70.045, -179.051
1784.241, 70.162, 179.713
1810.193, 70.279, 178.459
1836.523, 70.397, 177.191
1863.236, 70.514, 175.904
1890.338, 70.632, 174.598
1917.833, 70.749, 173.269
1945.729, 70.865, 171.916
1974.030, 70.980, 170.540
2002.743, 71.094, 169.140
2031.873, 71.206, 167.716
2061.428, 71.315, 166.268
2091.412, 71.421, 164.798
2121.832, 71.524, 163.304
2152.695, 71.623, 161.790
2184.007, 71.718, 160.255
2215.774, 71.809, 158.700
2248.003, 71.895, 157.126
2280.701, 71.975, 155.534
2313.874, 72.050, 153.923
2347.530, 72.118, 152.298
2381.676, 72.180, 150.661
2416.318, 72.235, 149.013
2451.464, 72.283, 147.355
2487.122, 72.323, 145.691
2523.298, 72.354, 144.021
2560.000, 72.377, 142.347
2597.236, 72.390, 140.670
2635.014, 72.393, 138.996
2673.341, 72.384, 137.332
2712.226, 72.364, 135.683
2751.676, 72.331, 134.059
2791.700, 72.286, 132.470
2832.306, 72.228, 130.925
2873.503, 72.157, 129.436
2915.299, 72.074, 128.011
2957.703, 71.981, 126.660
3000.724, 71.876, 125.390
3044.370, 71.760, 124.214
3088.652, 71.636, 123.146
3133.577, 71.504, 122.194
3179.156, 71.368, 121.369
3225.398, 71.229, 120.673
3272.312, 71.090, 120.110
3319.909, 70.955, 119.677
3368.198, 70.826, 119.368
3417.190, 70.705, 119.174
3466.894, 70.594, 119.084
3517.321, 70.497, 119.085
3568.482, 70.414, 119.159
3620.387, 70.346, 119.288
3673.046, 70.295, 119.452
3726.472, 70.261, 119.631
3780.675, 70.243, 119.803
3835.666, 70.242, 119.948
3891.457, 70.257, 120.042
3948.060, 70.286, 120.059
4005.486, 70.328, 119.970
4063.747, 70.379, 119.745
4122.855, 70.436, 119.350
4182.824, 70.491, 118.757
4243.664, 70.537, 117.948
4305.390, 70.563, 116.912
4368.013, 70.558, 115.659
4431.547, 70.512, 114.221
4496.005, 70.413, 112.646
4561.401, 70.256, 111.002
4627.749, 70.035, 109.354
4695.061, 69.748, 107.761
4763.352, 69.392, 106.258
4832.637, 68.955, 104.870
4902.929, 68.414, 103.639
4974.244, 67.728, 102.747
5046.596, 66.842, 102.746
5120.000, 65.755, 104.803
5194.472, 64.653, 110.245
5270.027, 63.938, 118.738
5346.682, 63.831, 127.648
5424.451, 64.115, 134.795
5503.352, 64.503, 140.037
5583.399, 64.873, 144.079
5664.612, 65.201, 147.495
5747.006, 65.498, 150.619
5830.598, 65.781, 153.617
5915.406, 66.066, 156.556
6001.447, 66.363, 159.450
6088.740, 66.680, 162.294
6177.303, 67.025, 165.080
6267.154, 67.402, 167.764
6358.312, 67.812, 170.308
6450.796, 68.258, 172.676
6544.625, 68.740, 174.823
6639.818, 69.257, 176.696
6736.397, 69.807, 178.239
6834.380, 70.386, 179.385
6933.789, 70.987, -179.940
7034.643, 71.600, -179.814
7136.964, 72.208, 179.684
7240.773, 72.788, 178.492
7346.093, 73.309, 176.596
7452.944, 73.735, 174.065
7561.350, 74.031, 171.083
7671.332, 74.176, 167.937
7782.915, 74.165, 164.970
7896.120, 74.015, 162.504
8010.971, 73.750, 160.814
8127.493, 73.409, 160.216
8245.711, 73.089, 161.021
8365.647, 72.952, 162.484
8487.328, 72.863, 163.250
8610.779, 72.664, 164.595
8736.026, 72.576, 167.118
8863.095, 72.683, 169.485
8992.011, 72.845, 171.121
9122.803, 72.993, 172.427
9255.497, 73.138, 173.670
9390.121, 73.305, 174.872
9526.704, 73.505, 175.924
9665.273, 73.739, 176.683
9805.857, 73.992, 176.991
9948.487, 74.240, 176.707
10093.191, 74.438, 175.766
10240.000, 74.534, 174.331
10388.944, 74.510, 172.721
10540.055, 74.352, 171.139
10693.363, 74.051, 169.996
10848.902, 73.624, 169.716
11006.703, 73.144, 170.737
11166.799, 72.706, 172.993
11329.224, 72.368, 176.156
11494.012, 72.151, 179.892
11661.195, 72.056, -176.036
11830.812, 72.083, -171.776
12002.895, 72.239, -167.448
12177.480, 72.538, -163.195
12354.606, 73.000, -159.233
12534.309, 73.640, -155.911
12716.624, 74.462, -153.657
12901.592, 75.463, -153.172
13089.250, 76.555, -155.433
13279.637, 77.529, -161.291
13472.794, 78.041, -170.791
13668.760, 77.764, 178.422
13867.577, 76.749, 170.034
14069.285, 75.369, 165.802
14273.928, 73.975, 165.262
14481.547, 72.750, 167.267
14692.186, 71.754, 170.806
14905.889, 70.984, 175.105
15122.700, 70.393, 179.629
15342.664, 69.910, -175.575
15565.829, 69.616, -169.797
15792.239, 69.822, -164.171
16021.942, 70.441, -162.253
16254.986, 70.809, -165.953
16491.422, 70.179, -171.734
16731.295, 68.654, -171.003
16974.656, 67.790, -162.126
17221.559, 68.402, -155.902
17472.053, 69.015, -159.018
17726.189, 68.507, -165.970
17984.021, 66.996, -169.295
18245.605, 65.182, -166.512
18510.994, 63.575, -159.362
18780.242, 62.301, -148.916
19053.408, 61.543, -134.954
19330.547, 61.910, -118.147
19611.715, 63.992, -104.448
19896.975, 66.466, -102.063
