* Measurement data measured by REW V5.19
* Source: ASIO MOTU M Series, In 1
* Format: 1M Log Swept Sine, 1 sweep at -3.0 dBFS  With no timing reference
* Dated: 6 Mar, 2023 2:33:10 PM
* REW Settings:
*  C-weighting compensation: Off
*  Target level: 75.0 dB
* Note: ; 
* Measurement: Mar 6 14:33:10
* Smoothing: 1/48 octave
* Frequency Step: 1/48 octave
* Start Frequency: 10.1 Hz
*
* Freq(Hz), SPL(dB), Phase(degrees)
10.145, 63.626, 85.790
10.293, 63.677, 85.054
10.443, 63.730, 84.065
10.595, 63.813, 82.775
10.749, 63.900, 81.427
10.905, 63.969, 80.396
11.064, 64.033, 79.469
11.225, 64.103, 78.398
11.388, 64.175, 77.259
11.554, 64.243, 76.148
11.722, 64.307, 75.053
11.892, 64.368, 73.969
12.065, 64.426, 72.897
12.241, 64.482, 71.817
12.419, 64.536, 70.742
12.599, 64.588, 69.709
12.782, 64.638, 68.696
12.968, 64.689, 67.680
13.157, 64.739, 66.675
13.348, 64.787, 65.691
13.543, 64.834, 64.719
13.740, 64.880, 63.757
13.939, 64.924, 62.819
14.142, 64.968, 61.905
14.348, 65.012, 61.025
14.557, 65.057, 60.168
14.768, 65.106, 59.333
14.983, 65.159, 58.508
15.201, 65.215, 57.677
15.422, 65.275, 56.828
15.646, 65.334, 55.956
15.874, 65.390, 55.065
16.105, 65.443, 54.161
16.339, 65.491, 53.267
16.577, 65.535, 52.396
16.818, 65.579, 51.555
17.063, 65.625, 50.740
17.311, 65.677, 49.928
17.563, 65.732, 49.094
17.818, 65.789, 48.214
18.077, 65.844, 47.270
18.340, 65.888, 46.280
18.607, 65.921, 45.272
18.877, 65.939, 44.288
19.152, 65.946, 43.374
19.431, 65.949, 42.557
19.713, 65.955, 41.832
20.000, 65.971, 41.167
20.291, 65.999, 40.518
20.586, 66.036, 39.838
20.885, 66.079, 39.099
21.189, 66.120, 38.295
21.497, 66.155, 37.445
21.810, 66.181, 36.575
22.127, 66.199, 35.711
22.449, 66.210, 34.868
22.776, 66.216, 34.051
23.107, 66.217, 33.263
23.443, 66.215, 32.504
23.784, 66.208, 31.781
24.130, 66.197, 31.109
24.481, 66.185, 30.508
24.837, 66.178, 29.990
25.198, 66.183, 29.534
25.565, 66.207, 29.083
25.937, 66.250, 28.549
26.314, 66.300, 27.860
26.697, 66.341, 27.006
27.085, 66.359, 26.055
27.479, 66.353, 25.122
27.879, 66.331, 24.302
28.284, 66.310, 23.608
28.696, 66.300, 22.979
29.113, 66.302, 22.339
29.537, 66.306, 21.655
29.966, 66.308, 20.952
30.402, 66.306, 20.267
30.844, 66.306, 19.605
31.293, 66.308, 18.945
31.748, 66.309, 18.277
32.210, 66.307, 17.615
32.678, 66.302, 16.976
33.154, 66.296, 16.359
33.636, 66.289, 15.751
34.125, 66.280, 15.152
34.621, 66.268, 14.572
35.125, 66.256, 14.007
35.636, 66.244, 13.433
36.154, 66.228, 12.846
36.680, 66.207, 12.269
37.214, 66.185, 11.713
37.755, 66.164, 11.148
38.304, 66.140, 10.553
38.861, 66.106, 9.973
39.427, 66.071, 9.465
40.000, 66.046, 8.996
40.582, 66.029, 8.455
41.172, 66.001, 7.835
41.771, 65.954, 7.274
42.379, 65.910, 6.860
42.995, 65.889, 6.473
43.620, 65.877, 5.950
44.255, 65.849, 5.323
44.898, 65.801, 4.755
45.552, 65.753, 4.309
46.214, 65.716, 3.902
46.886, 65.684, 3.463
47.568, 65.645, 3.046
48.260, 65.611, 2.721
48.962, 65.593, 2.416
49.674, 65.584, 2.013
50.397, 65.564, 1.538
51.130, 65.532, 1.073
51.874, 65.494, 0.640
52.628, 65.453, 0.234
53.394, 65.412, -0.187
54.170, 65.365, -0.644
54.958, 65.308, -1.078
55.758, 65.251, -1.481
56.569, 65.193, -1.874
57.391, 65.135, -2.251
58.226, 65.076, -2.593
59.073, 65.023, -2.880
59.932, 64.978, -3.221
60.804, 64.916, -3.560
61.688, 64.859, -3.771
62.586, 64.812, -4.049
63.496, 64.744, -4.329
64.420, 64.678, -4.432
65.357, 64.647, -4.554
66.307, 64.606, -5.059
67.272, 64.484, -5.358
68.250, 64.424, -5.088
69.243, 64.434, -5.328
70.250, 64.396, -5.834
71.272, 64.329, -6.359
72.309, 64.226, -6.610
73.360, 64.159, -6.703
74.427, 64.069, -6.741
75.510, 64.037, -6.534
76.608, 63.998, -6.840
77.723, 63.905, -6.809
78.853, 63.861, -6.712
80.000, 63.813, -6.735
81.164, 63.770, -6.837
82.344, 63.712, -6.968
83.542, 63.656, -7.125
84.757, 63.576, -7.278
85.990, 63.495, -7.288
87.241, 63.421, -7.210
88.510, 63.371, -7.225
89.797, 63.294, -7.478
91.103, 63.161, -7.579
92.428, 63.049, -7.327
93.773, 62.954, -7.070
95.137, 62.907, -6.633
96.520, 62.876, -6.419
97.924, 62.879, -6.077
99.349, 62.854, -6.093
100.794, 62.825, -5.743
102.260, 62.808, -5.764
103.747, 62.769, -5.831
105.256, 62.716, -6.006
106.787, 62.652, -6.015
108.340, 62.610, -5.898
109.916, 62.558, -5.893
111.515, 62.487, -5.848
113.137, 62.396, -5.830
114.783, 62.307, -5.586
116.452, 62.242, -5.341
118.146, 62.152, -5.060
119.865, 62.037, -4.687
121.608, 61.931, -4.248
123.377, 61.835, -4.008
125.171, 61.735, -3.646
126.992, 61.679, -3.007
128.839, 61.593, -2.502
130.713, 61.515, -1.665
132.615, 61.446, -1.168
134.543, 61.351, -0.374
136.500, 61.304, 0.620
138.486, 61.257, 1.319
140.500, 61.184, 1.905
142.544, 61.151, 2.624
144.617, 61.139, 3.746
146.721, 61.144, 5.235
148.855, 61.102, 6.928
151.020, 61.109, 8.735
153.217, 61.245, 10.016
155.445, 61.458, 11.502
157.706, 61.702, 12.496
160.000, 61.837, 13.266
162.327, 61.940, 14.149
164.688, 62.181, 14.390
167.084, 62.432, 14.328
169.514, 62.679, 13.731
171.980, 62.823, 13.582
174.481, 63.013, 12.897
177.019, 63.082, 11.522
179.594, 63.122, 10.926
182.206, 63.152, 10.287
184.856, 63.176, 9.569
187.545, 63.222, 8.886
190.273, 63.220, 8.557
193.041, 63.223, 8.386
195.849, 63.234, 7.960
198.697, 63.195, 7.579
201.587, 63.177, 7.526
204.520, 63.166, 7.157
207.494, 63.169, 6.791
210.512, 63.138, 6.662
213.574, 63.090, 6.628
216.681, 63.043, 6.419
219.833, 62.997, 5.958
223.030, 62.949, 5.932
226.274, 62.947, 5.995
229.565, 62.898, 6.064
232.905, 62.848, 6.106
236.292, 62.803, 6.208
239.729, 62.752, 6.356
243.216, 62.711, 6.573
246.754, 62.674, 6.810
250.343, 62.639, 7.074
253.984, 62.614, 7.385
257.678, 62.597, 7.732
261.426, 62.594, 8.051
265.229, 62.598, 8.351
269.087, 62.610, 8.597
273.001, 62.626, 8.770
276.972, 62.637, 8.902
281.000, 62.642, 8.896
285.088, 62.636, 8.916
289.234, 62.620, 8.943
293.441, 62.598, 8.998
297.710, 62.572, 9.091
302.040, 62.544, 9.190
306.433, 62.516, 9.321
310.890, 62.485, 9.477
315.412, 62.446, 9.673
320.000, 62.407, 9.901
324.655, 62.368, 10.162
329.377, 62.331, 10.425
334.168, 62.295, 10.718
339.028, 62.255, 11.041
343.959, 62.217, 11.381
348.962, 62.178, 11.742
354.038, 62.138, 12.122
359.188, 62.093, 12.520
364.412, 62.045, 12.957
369.713, 61.994, 13.422
375.090, 61.942, 13.947
380.546, 61.886, 14.535
386.081, 61.828, 15.214
391.697, 61.772, 15.990
397.395, 61.720, 16.867
403.175, 61.676, 17.861
409.039, 61.645, 18.970
414.989, 61.634, 20.166
421.025, 61.637, 21.429
427.149, 61.659, 22.779
433.362, 61.706, 24.240
439.665, 61.801, 25.779
446.060, 61.958, 27.202
452.548, 62.156, 28.316
459.131, 62.360, 29.077
465.809, 62.549, 29.493
472.584, 62.710, 29.759
479.458, 62.851, 29.987
486.432, 62.987, 30.246
493.507, 63.125, 30.455
500.686, 63.263, 30.552
507.968, 63.382, 30.555
515.357, 63.485, 30.462
522.853, 63.569, 30.378
530.458, 63.636, 30.376
538.174, 63.691, 30.449
546.002, 63.743, 30.602
553.943, 63.797, 30.881
562.001, 63.861, 31.285
570.175, 63.944, 31.740
578.469, 64.055, 32.182
586.883, 64.191, 32.507
595.419, 64.342, 32.634
604.080, 64.488, 32.533
612.866, 64.616, 32.259
621.780, 64.719, 31.859
630.824, 64.798, 31.417
640.000, 64.853, 31.004
649.309, 64.893, 30.633
658.753, 64.917, 30.340
668.335, 64.930, 30.138
678.056, 64.936, 30.012
687.919, 64.938, 29.956
697.925, 64.937, 29.977
708.076, 64.936, 30.074
718.376, 64.940, 30.206
728.825, 64.949, 30.388
739.426, 64.959, 30.610
750.181, 64.972, 30.869
761.093, 64.988, 31.172
772.163, 65.006, 31.500
783.394, 65.029, 31.860
794.789, 65.057, 32.257
806.349, 65.091, 32.685
818.078, 65.133, 33.130
829.977, 65.182, 33.572
842.050, 65.236, 34.045
854.297, 65.299, 34.481
866.724, 65.368, 34.908
879.330, 65.440, 35.330
892.120, 65.513, 35.729
905.097, 65.590, 36.128
918.262, 65.670, 36.519
931.618, 65.755, 36.901
945.169, 65.846, 37.273
958.917, 65.941, 37.619
972.864, 66.040, 37.933
987.015, 66.142, 38.218
1001.371, 66.246, 38.472
1015.937, 66.351, 38.687
1030.714, 66.454, 38.870
1045.706, 66.555, 39.039
1060.916, 66.658, 39.170
1076.347, 66.762, 39.287
1092.003, 66.865, 39.388
1107.887, 66.970, 39.459
1124.001, 67.072, 39.531
1140.350, 67.169, 39.582
1156.937, 67.264, 39.641
1173.765, 67.361, 39.673
1190.838, 67.460, 39.708
1208.159, 67.555, 39.740
1225.732, 67.651, 39.764
1243.561, 67.746, 39.777
1261.649, 67.841, 39.775
1280.000, 67.932, 39.769
1298.618, 68.021, 39.752
1317.507, 68.113, 39.723
1336.670, 68.203, 39.690
1356.113, 68.291, 39.665
1375.838, 68.378, 39.643
1395.850, 68.466, 39.626
1416.153, 68.553, 39.619
1436.751, 68.640, 39.614
1457.649, 68.727, 39.617
1478.851, 68.816, 39.633
1500.362, 68.910, 39.638
1522.185, 69.003, 39.651
1544.326, 69.094, 39.670
1566.789, 69.188, 39.689
1589.578, 69.283, 39.711
1612.699, 69.379, 39.737
1636.156, 69.476, 39.764
1659.955, 69.573, 39.799
1684.099, 69.676, 39.824
1708.595, 69.783, 39.855
1733.447, 69.896, 39.880
1758.661, 70.011, 39.909
1784.241, 70.125, 39.940
1810.193, 70.245, 39.966
1836.523, 70.374, 39.974
1863.236, 70.504, 39.980
1890.338, 70.639, 39.971
1917.833, 70.778, 39.952
1945.729, 70.922, 39.905
1974.030, 71.068, 39.843
2002.743, 71.224, 39.743
2031.873, 71.390, 39.605
2061.428, 71.558, 39.435
2091.412, 71.730, 39.220
2121.832, 71.908, 38.954
2152.695, 72.091, 38.635
2184.007, 72.278, 38.251
2215.774, 72.469, 37.790
2248.003, 72.659, 37.267
2280.701, 72.856, 36.645
2313.874, 73.054, 35.939
2347.530, 73.249, 35.153
2381.676, 73.439, 34.285
2416.318, 73.623, 33.345
2451.464, 73.806, 32.325
2487.122, 73.992, 31.190
2523.298, 74.174, 29.930
2560.000, 74.347, 28.546
2597.236, 74.508, 27.039
2635.014, 74.653, 25.415
2673.341, 74.781, 23.682
2712.226, 74.889, 21.858
2751.676, 74.977, 19.950
2791.700, 75.036, 17.986
2832.306, 75.065, 15.978
2873.503, 75.070, 13.940
2915.299, 75.049, 11.902
2957.703, 75.001, 9.887
3000.724, 74.929, 7.909
3044.370, 74.828, 6.003
3088.652, 74.699, 4.189
3133.577, 74.546, 2.490
3179.156, 74.368, 0.934
3225.398, 74.170, -0.443
3272.312, 73.954, -1.601
3319.909, 73.731, -2.523
3368.198, 73.513, -3.222
3417.190, 73.304, -3.730
3466.894, 73.107, -4.081
3517.321, 72.923, -4.320
3568.482, 72.749, -4.461
3620.387, 72.587, -4.502
3673.046, 72.429, -4.437
3726.472, 72.284, -4.282
3780.675, 72.156, -4.043
3835.666, 72.043, -3.734
3891.457, 71.946, -3.367
3948.060, 71.866, -2.953
4005.486, 71.805, -2.506
4063.747, 71.764, -2.045
4122.855, 71.736, -1.566
4182.824, 71.731, -1.100
4243.664, 71.746, -0.664
4305.390, 71.782, -0.276
4368.013, 71.838, 0.045
4431.547, 71.913, 0.275
4496.005, 72.007, 0.388
4561.401, 72.118, 0.358
4627.749, 72.244, 0.153
4695.061, 72.384, -0.263
4763.352, 72.525, -0.910
4832.637, 72.662, -1.816
4902.929, 72.786, -2.994
4974.244, 72.886, -4.441
5046.596, 72.950, -6.130
5120.000, 72.974, -8.020
5194.472, 72.941, -10.024
5270.027, 72.848, -12.046
5346.682, 72.696, -13.980
5424.451, 72.489, -15.725
5503.352, 72.237, -17.200
5583.399, 71.952, -18.341
5664.612, 71.649, -19.116
5747.006, 71.342, -19.517
5830.598, 71.045, -19.563
5915.406, 70.773, -19.295
6001.447, 70.536, -18.783
6088.740, 70.339, -18.103
6177.303, 70.195, -17.351
6267.154, 70.106, -16.657
6358.312, 70.064, -16.147
6450.796, 70.058, -15.928
6544.625, 70.069, -16.092
6639.818, 70.074, -16.683
6736.397, 70.050, -17.665
6834.380, 69.979, -18.909
6933.789, 69.865, -20.519
7034.643, 69.618, -22.452
7136.964, 69.263, -23.852
7240.773, 68.869, -24.792
7346.093, 68.447, -25.346
7452.944, 68.006, -25.515
7561.350, 67.558, -25.293
7671.332, 67.112, -24.699
7782.915, 66.681, -23.763
7896.120, 66.266, -22.512
8010.971, 65.871, -20.980
8127.493, 65.502, -19.198
8245.711, 65.157, -17.211
8365.647, 64.842, -15.056
8487.328, 64.555, -12.748
8610.779, 64.294, -10.286
8736.026, 64.064, -7.665
8863.095, 63.869, -4.899
8992.011, 63.709, -2.002
9122.803, 63.597, 0.993
9255.497, 63.551, 3.988
9390.121, 63.557, 6.619
9526.704, 63.551, 9.021
9665.273, 63.549, 11.357
9805.857, 63.521, 13.723
9948.487, 63.506, 16.542
10093.191, 63.607, 19.705
10240.000, 63.855, 22.419
10388.944, 64.159, 24.025
10540.055, 64.360, 24.498
10693.363, 64.332, 25.000
10848.902, 64.174, 27.189
11006.703, 64.238, 31.413
11166.799, 64.727, 35.350
11329.224, 65.411, 37.188
11494.012, 66.040, 36.960
11661.195, 66.493, 35.429
11830.812, 66.742, 33.456
12002.895, 66.812, 31.778
12177.480, 66.773, 30.857
12354.606, 66.711, 30.780
12534.309, 66.695, 31.416
12716.624, 66.777, 32.571
12901.592, 67.002, 33.936
13089.250, 67.407, 35.087
13279.637, 68.011, 35.486
13472.794, 68.799, 34.421
13668.760, 69.684, 31.013
13867.577, 70.476, 24.614
14069.285, 70.912, 15.418
14273.928, 70.792, 5.053
14481.547, 70.133, -4.153
14692.186, 69.159, -10.846
14905.889, 68.115, -15.188
15122.700, 67.123, -17.934
15342.664, 66.214, -19.716
15565.829, 65.396, -20.967
15792.239, 64.668, -21.984
16021.942, 64.021, -23.195
16254.986, 63.344, -24.471
16491.422, 62.893, -25.049
16731.295, 62.526, -29.060
16974.656, 61.703, -33.982
17221.559, 60.540, -37.803
17472.053, 59.164, -39.835
17726.189, 57.691, -39.852
17984.021, 56.203, -37.866
18245.605, 54.726, -33.637
18510.994, 53.287, -25.977
18780.242, 52.450, -10.501
19053.408, 54.798, 5.405
19330.547, 57.141, -2.174
19611.715, 57.444, -13.978
19896.975, 57.339, -20.678
