* Measurement data measured by REW V5.19
* Source: ASIO MOTU M Series, In 1
* Format: 1M Log Swept Sine, 1 sweep at -3.0 dBFS  With no timing reference
* Dated: 28 Mar, 2023 10:59:10 AM
* REW Settings:
*  C-weighting compensation: Off
*  Target level: 75.0 dB
* Note: ; 
* Measurement: Mar 28 10:59:10
* Smoothing: 1/48 octave
* Frequency Step: 1/48 octave
* Start Frequency: 10.1 Hz
*
* Freq(Hz), SPL(dB), Phase(degrees)
10.145, 57.637, -79.218
10.293, 57.714, -80.033
10.443, 57.792, -81.122
10.595, 57.901, -82.549
10.749, 58.004, -84.011
10.905, 58.062, -85.068
11.064, 58.099, -85.941
11.225, 58.146, -86.849
11.388, 58.196, -87.720
11.554, 58.250, -88.453
11.722, 58.311, -89.075
11.892, 58.386, -89.650
12.065, 58.477, -90.191
12.241, 58.585, -90.805
12.419, 58.707, -91.484
12.599, 58.834, -92.250
12.782, 58.963, -93.114
12.968, 59.086, -94.111
13.157, 59.200, -95.186
13.348, 59.298, -96.311
13.543, 59.381, -97.439
13.740, 59.450, -98.555
13.939, 59.511, -99.609
14.142, 59.567, -100.602
14.348, 59.623, -101.525
14.557, 59.685, -102.417
14.768, 59.755, -103.293
14.983, 59.830, -104.198
15.201, 59.906, -105.144
15.422, 59.982, -106.146
15.646, 60.049, -107.182
15.874, 60.107, -108.224
16.105, 60.154, -109.244
16.339, 60.194, -110.195
16.577, 60.232, -111.070
16.818, 60.273, -111.866
17.063, 60.323, -112.606
17.311, 60.383, -113.331
17.563, 60.451, -114.071
17.818, 60.523, -114.851
18.077, 60.595, -115.675
18.340, 60.660, -116.518
18.607, 60.719, -117.355
18.877, 60.772, -118.159
19.152, 60.823, -118.910
19.431, 60.876, -119.616
19.713, 60.934, -120.299
20.000, 60.997, -120.988
20.291, 61.062, -121.705
20.586, 61.125, -122.457
20.885, 61.182, -123.236
21.189, 61.230, -124.017
21.497, 61.271, -124.774
21.810, 61.307, -125.492
22.127, 61.342, -126.167
22.449, 61.379, -126.812
22.776, 61.419, -127.447
23.107, 61.461, -128.090
23.443, 61.503, -128.750
23.784, 61.544, -129.426
24.130, 61.581, -130.107
24.481, 61.616, -130.780
24.837, 61.651, -131.443
25.198, 61.686, -132.100
25.565, 61.721, -132.758
25.937, 61.754, -133.422
26.314, 61.786, -134.083
26.697, 61.814, -134.729
27.085, 61.841, -135.347
27.479, 61.869, -135.938
27.879, 61.898, -136.516
28.284, 61.930, -137.091
28.696, 61.960, -137.669
29.113, 61.990, -138.245
29.537, 62.018, -138.817
29.966, 62.044, -139.385
30.402, 62.068, -139.950
30.844, 62.090, -140.506
31.293, 62.110, -141.048
31.748, 62.130, -141.577
32.210, 62.151, -142.103
32.678, 62.172, -142.638
33.154, 62.191, -143.177
33.636, 62.209, -143.709
34.125, 62.225, -144.225
34.621, 62.243, -144.729
35.125, 62.262, -145.232
35.636, 62.282, -145.736
36.154, 62.300, -146.237
36.680, 62.318, -146.732
37.214, 62.334, -147.218
37.755, 62.350, -147.694
38.304, 62.364, -148.157
38.861, 62.378, -148.609
39.427, 62.392, -149.052
40.000, 62.406, -149.490
40.582, 62.421, -149.930
41.172, 62.435, -150.379
41.771, 62.446, -150.834
42.379, 62.455, -151.281
42.995, 62.464, -151.712
43.620, 62.474, -152.134
44.255, 62.485, -152.559
44.898, 62.496, -152.985
45.552, 62.505, -153.402
46.214, 62.513, -153.806
46.886, 62.522, -154.200
47.568, 62.531, -154.586
48.260, 62.540, -154.967
48.962, 62.548, -155.344
49.674, 62.556, -155.715
50.397, 62.564, -156.089
51.130, 62.570, -156.474
51.874, 62.572, -156.853
52.628, 62.572, -157.202
53.394, 62.575, -157.531
54.170, 62.579, -157.865
54.958, 62.584, -158.201
55.758, 62.591, -158.540
56.569, 62.596, -158.894
57.391, 62.600, -159.241
58.226, 62.604, -159.571
59.073, 62.609, -159.912
59.932, 62.610, -160.240
60.804, 62.614, -160.533
61.688, 62.618, -160.845
62.586, 62.615, -161.132
63.496, 62.618, -161.381
64.420, 62.618, -161.679
65.357, 62.611, -161.898
66.307, 62.625, -162.112
67.272, 62.634, -162.505
68.250, 62.621, -162.834
69.243, 62.617, -163.093
70.250, 62.615, -163.381
71.272, 62.612, -163.639
72.309, 62.612, -163.902
73.360, 62.611, -164.157
74.427, 62.610, -164.406
75.510, 62.609, -164.653
76.608, 62.608, -164.908
77.723, 62.606, -165.157
78.853, 62.605, -165.419
80.000, 62.602, -165.668
81.164, 62.599, -165.929
82.344, 62.592, -166.152
83.542, 62.588, -166.380
84.757, 62.579, -166.621
85.990, 62.567, -166.844
87.241, 62.551, -167.043
88.510, 62.535, -167.225
89.797, 62.518, -167.364
91.103, 62.502, -167.457
92.428, 62.493, -167.469
93.773, 62.500, -167.479
95.137, 62.517, -167.516
96.520, 62.544, -167.645
97.924, 62.570, -167.861
99.349, 62.587, -168.163
100.794, 62.598, -168.433
102.260, 62.609, -168.766
103.747, 62.606, -169.112
105.256, 62.593, -169.398
106.787, 62.587, -169.660
108.340, 62.571, -169.940
109.916, 62.556, -170.123
111.515, 62.549, -170.381
113.137, 62.520, -170.639
114.783, 62.493, -170.805
116.452, 62.475, -170.966
118.146, 62.462, -171.140
119.865, 62.447, -171.362
121.608, 62.415, -171.430
123.377, 62.398, -171.465
125.171, 62.380, -171.513
126.992, 62.365, -171.568
128.839, 62.359, -171.658
130.713, 62.356, -171.763
132.615, 62.357, -171.899
134.543, 62.349, -172.062
136.500, 62.342, -172.235
138.486, 62.327, -172.464
140.500, 62.310, -172.678
142.544, 62.287, -172.876
144.617, 62.263, -173.055
146.721, 62.235, -173.248
148.855, 62.200, -173.460
151.020, 62.160, -173.641
153.217, 62.113, -173.778
155.445, 62.061, -173.872
157.706, 62.006, -173.937
160.000, 61.948, -173.994
162.327, 61.880, -174.009
164.688, 61.804, -173.896
167.084, 61.733, -173.665
169.514, 61.660, -173.362
171.980, 61.587, -172.951
174.481, 61.521, -172.372
177.019, 61.481, -171.685
179.594, 61.465, -170.903
182.206, 61.487, -170.041
184.856, 61.546, -169.314
187.545, 61.634, -168.704
190.273, 61.748, -168.295
193.041, 61.851, -168.065
195.849, 61.951, -168.069
198.697, 62.048, -168.209
201.587, 62.129, -168.410
204.520, 62.191, -168.710
207.494, 62.254, -169.125
210.512, 62.288, -169.453
213.574, 62.299, -169.882
216.681, 62.270, -170.494
219.833, 62.316, -170.669
223.030, 62.337, -170.896
226.274, 62.318, -171.171
229.565, 62.308, -171.495
232.905, 62.296, -171.791
236.292, 62.271, -172.004
239.729, 62.248, -172.179
243.216, 62.216, -172.371
246.754, 62.180, -172.549
250.343, 62.155, -172.690
253.984, 62.124, -172.775
257.678, 62.091, -172.858
261.426, 62.055, -172.938
265.229, 62.021, -173.017
269.087, 61.987, -173.040
273.001, 61.951, -173.074
276.972, 61.920, -173.083
281.000, 61.884, -173.093
285.088, 61.850, -173.085
289.234, 61.813, -173.038
293.441, 61.783, -172.992
297.710, 61.753, -172.964
302.040, 61.722, -172.934
306.433, 61.689, -172.877
310.890, 61.652, -172.872
315.412, 61.615, -172.849
320.000, 61.577, -172.836
324.655, 61.535, -172.812
329.377, 61.491, -172.778
334.168, 61.441, -172.738
339.028, 61.390, -172.660
343.959, 61.332, -172.588
348.962, 61.273, -172.497
354.038, 61.210, -172.392
359.188, 61.143, -172.267
364.412, 61.073, -172.102
369.713, 61.000, -171.908
375.090, 60.921, -171.668
380.546, 60.837, -171.402
386.081, 60.755, -171.082
391.697, 60.665, -170.701
397.395, 60.573, -170.246
403.175, 60.482, -169.722
409.039, 60.393, -169.131
414.989, 60.308, -168.447
421.025, 60.227, -167.702
427.149, 60.154, -166.870
433.362, 60.087, -165.987
439.665, 60.030, -165.044
446.060, 59.984, -164.063
452.548, 59.946, -163.049
459.131, 59.922, -162.001
465.809, 59.910, -160.931
472.584, 59.911, -159.868
479.458, 59.923, -158.787
486.432, 59.947, -157.682
493.507, 59.976, -156.693
500.686, 60.018, -155.679
507.968, 60.067, -154.679
515.357, 60.128, -153.734
522.853, 60.197, -152.816
530.458, 60.272, -151.978
538.174, 60.351, -151.195
546.002, 60.429, -150.498
553.943, 60.504, -149.850
562.001, 60.574, -149.234
570.175, 60.640, -148.641
578.469, 60.705, -148.046
586.883, 60.770, -147.460
595.419, 60.834, -146.945
604.080, 60.875, -146.518
612.866, 60.887, -145.878
621.780, 60.924, -144.980
630.824, 60.992, -144.122
640.000, 61.069, -143.352
649.309, 61.145, -142.623
658.753, 61.228, -141.915
668.335, 61.313, -141.243
678.056, 61.395, -140.634
687.919, 61.465, -140.060
697.925, 61.516, -139.389
708.076, 61.574, -138.541
718.376, 61.657, -137.624
728.825, 61.759, -136.736
739.426, 61.873, -135.920
750.181, 61.991, -135.164
761.093, 62.114, -134.456
772.163, 62.236, -133.784
783.394, 62.356, -133.125
794.789, 62.479, -132.477
806.349, 62.602, -131.829
818.078, 62.730, -131.179
829.977, 62.860, -130.539
842.050, 62.993, -129.898
854.297, 63.132, -129.253
866.724, 63.278, -128.614
879.330, 63.430, -127.998
892.120, 63.588, -127.390
905.097, 63.753, -126.801
918.262, 63.926, -126.247
931.618, 64.107, -125.741
945.169, 64.295, -125.295
958.917, 64.486, -124.905
972.864, 64.678, -124.584
987.015, 64.871, -124.317
1001.371, 65.065, -124.092
1015.937, 65.261, -123.925
1030.714, 65.455, -123.809
1045.706, 65.648, -123.737
1060.916, 65.841, -123.711
1076.347, 66.032, -123.732
1092.003, 66.220, -123.793
1107.887, 66.406, -123.895
1124.001, 66.590, -124.030
1140.350, 66.770, -124.199
1156.937, 66.947, -124.399
1173.765, 67.122, -124.631
1190.838, 67.293, -124.885
1208.159, 67.461, -125.160
1225.732, 67.627, -125.453
1243.561, 67.790, -125.761
1261.649, 67.951, -126.084
1280.000, 68.110, -126.420
1298.618, 68.267, -126.768
1317.507, 68.423, -127.132
1336.670, 68.580, -127.519
1356.113, 68.735, -127.922
1375.838, 68.889, -128.347
1395.850, 69.043, -128.799
1416.153, 69.194, -129.274
1436.751, 69.345, -129.775
1457.649, 69.493, -130.300
1478.851, 69.640, -130.850
1500.362, 69.784, -131.422
1522.185, 69.927, -132.016
1544.326, 70.068, -132.631
1566.789, 70.207, -133.268
1589.578, 70.345, -133.930
1612.699, 70.481, -134.620
1636.156, 70.616, -135.341
1659.955, 70.749, -136.095
1684.099, 70.879, -136.884
1708.595, 71.005, -137.707
1733.447, 71.129, -138.569
1758.661, 71.249, -139.469
1784.241, 71.365, -140.407
1810.193, 71.477, -141.383
1836.523, 71.582, -142.398
1863.236, 71.682, -143.450
1890.338, 71.774, -144.541
1917.833, 71.860, -145.668
1945.729, 71.936, -146.829
1974.030, 72.004, -148.022
2002.743, 72.062, -149.243
2031.873, 72.109, -150.485
2061.428, 72.143, -151.742
2091.412, 72.166, -153.006
2121.832, 72.175, -154.270
2152.695, 72.171, -155.522
2184.007, 72.155, -156.757
2215.774, 72.127, -157.965
2248.003, 72.087, -159.138
2280.701, 72.036, -160.269
2313.874, 71.974, -161.348
2347.530, 71.902, -162.367
2381.676, 71.820, -163.319
2416.318, 71.731, -164.198
2451.464, 71.636, -165.001
2487.122, 71.536, -165.725
2523.298, 71.435, -166.372
2560.000, 71.333, -166.951
2597.236, 71.233, -167.472
2635.014, 71.134, -167.942
2673.341, 71.035, -168.374
2712.226, 70.936, -168.771
2751.676, 70.835, -169.135
2791.700, 70.733, -169.475
2832.306, 70.630, -169.777
2873.503, 70.524, -170.045
2915.299, 70.416, -170.285
2957.703, 70.303, -170.490
3000.724, 70.187, -170.664
3044.370, 70.062, -170.798
3088.652, 69.928, -170.862
3133.577, 69.785, -170.830
3179.156, 69.635, -170.667
3225.398, 69.484, -170.355
3272.312, 69.336, -169.882
3319.909, 69.197, -169.243
3368.198, 69.075, -168.455
3417.190, 68.974, -167.555
3466.894, 68.894, -166.580
3517.321, 68.835, -165.554
3568.482, 68.797, -164.482
3620.387, 68.780, -163.379
3673.046, 68.785, -162.264
3726.472, 68.812, -161.141
3780.675, 68.861, -160.027
3835.666, 68.934, -158.935
3891.457, 69.031, -157.884
3948.060, 69.152, -156.889
4005.486, 69.297, -155.970
4063.747, 69.466, -155.147
4122.855, 69.659, -154.439
4182.824, 69.875, -153.865
4243.664, 70.114, -153.450
4305.390, 70.376, -153.221
4368.013, 70.661, -153.216
4431.547, 70.966, -153.483
4496.005, 71.288, -154.075
4561.401, 71.619, -155.046
4627.749, 71.950, -156.449
4695.061, 72.268, -158.331
4763.352, 72.555, -160.719
4832.637, 72.791, -163.607
4902.929, 72.954, -166.944
4974.244, 73.021, -170.623
5046.596, 72.977, -174.479
5120.000, 72.811, -178.312
5194.472, 72.527, 178.097
5270.027, 72.134, 174.967
5346.682, 71.653, 172.562
5424.451, 71.152, 171.102
5503.352, 70.708, 170.066
5583.399, 70.255, 169.159
5664.612, 69.787, 168.559
5747.006, 69.294, 168.342
5830.598, 68.800, 168.656
5915.406, 68.333, 169.427
6001.447, 67.899, 170.558
6088.740, 67.503, 171.983
6177.303, 67.148, 173.648
6267.154, 66.835, 175.508
6358.312, 66.563, 177.533
6450.796, 66.332, 179.689
6544.625, 66.147, -178.048
6639.818, 66.007, -175.709
6736.397, 65.916, -173.321
6834.380, 65.875, -170.915
6933.789, 65.886, -168.524
7034.643, 65.951, -166.187
7136.964, 66.075, -163.960
7240.773, 66.258, -161.902
7346.093, 66.504, -160.088
7452.944, 66.812, -158.608
7561.350, 67.176, -157.569
7671.332, 67.590, -157.100
7782.915, 68.036, -157.345
7896.120, 68.486, -158.430
8010.971, 68.899, -160.419
8127.493, 69.227, -163.255
8245.711, 69.426, -166.758
8365.647, 69.462, -170.623
8487.328, 69.317, -174.370
8610.779, 69.024, -177.487
8736.026, 68.657, -179.785
8863.095, 68.263, 178.600
8992.011, 67.853, 177.618
9122.803, 67.450, 177.329
9255.497, 67.096, 177.717
9390.121, 66.831, 178.626
9526.704, 66.682, 179.846
9665.273, 66.672, -178.878
9805.857, 66.823, -177.862
9948.487, 67.148, -177.528
10093.191, 67.645, -178.467
10240.000, 68.267, 178.490
10388.944, 68.867, 172.366
10540.055, 69.143, 162.734
10693.363, 68.764, 150.991
10848.902, 67.591, 140.199
11006.703, 65.825, 133.356
11166.799, 63.852, 131.230
11329.224, 61.969, 133.296
11494.012, 60.389, 138.882
11661.195, 59.344, 147.074
11830.812, 59.064, 155.802
12002.895, 59.484, 161.883
12177.480, 60.116, 163.366
12354.606, 60.507, 161.336
12534.309, 60.571, 158.146
12716.624, 60.466, 154.987
12901.592, 60.337, 151.628
13089.250, 60.205, 147.254
13279.637, 59.964, 141.229
13472.794, 59.433, 133.731
13668.760, 58.478, 126.003
13867.577, 57.127, 119.732
14069.285, 55.567, 115.887
14273.928, 54.028, 114.377
14481.547, 52.697, 114.359
14692.186, 51.684, 114.414
14905.889, 51.004, 112.890
15122.700, 50.560, 107.025
15342.664, 49.724, 93.807
15565.829, 47.429, 76.720
15792.239, 43.418, 66.317
16021.942, 38.590, 67.000
16254.986, 33.852, 77.054
16491.422, 29.723, 94.039
16731.295, 26.523, 115.339
16974.656, 24.429, 138.144
17221.559, 23.342, 159.027
17472.053, 22.743, 176.146
17726.189, 22.188, -169.507
17984.021, 21.559, -155.773
18245.605, 21.186, -142.296
18510.994, 21.082, -131.771
18780.242, 20.736, -125.457
19053.408, 19.662, -121.593
19330.547, 17.409, -116.618
19611.715, 13.374, -97.604
19896.975, 9.620, -46.779
