* Measurement data measured by REW V5.19
* Source: ASIO MOTU M Series, In 1
* Format: 1M Log Swept Sine, 1 sweep at -3.0 dBFS  With no timing reference
* Dated: 7 Feb, 2023 3:36:59 PM
* REW Settings:
*  C-weighting compensation: Off
*  Target level: 75.0 dB
* Note: ; 
* Measurement: Feb 7 15:36:59
* Smoothing: 1/48 octave
* Frequency Step: 1/48 octave
* Start Frequency: 10.1 Hz
*
* Freq(Hz), SPL(dB), Phase(degrees)
10.145, 68.580, 65.078
10.293, 68.613, 64.330
10.443, 68.647, 63.325
10.595, 68.697, 62.005
10.749, 68.748, 60.628
10.905, 68.781, 59.579
11.064, 68.807, 58.647
11.225, 68.837, 57.599
11.388, 68.867, 56.507
11.554, 68.894, 55.468
11.722, 68.920, 54.464
11.892, 68.945, 53.479
12.065, 68.970, 52.510
12.241, 68.996, 51.522
12.419, 69.022, 50.529
12.599, 69.045, 49.558
12.782, 69.067, 48.594
12.968, 69.087, 47.616
13.157, 69.104, 46.646
13.348, 69.118, 45.697
13.543, 69.131, 44.765
13.740, 69.142, 43.848
13.939, 69.153, 42.951
14.142, 69.164, 42.071
14.348, 69.176, 41.204
14.557, 69.190, 40.339
14.768, 69.203, 39.472
14.983, 69.217, 38.601
15.201, 69.229, 37.726
15.422, 69.238, 36.848
15.646, 69.245, 35.976
15.874, 69.250, 35.117
16.105, 69.253, 34.274
16.339, 69.255, 33.449
16.577, 69.258, 32.640
16.818, 69.261, 31.840
17.063, 69.264, 31.040
17.311, 69.267, 30.237
17.563, 69.268, 29.430
17.818, 69.266, 28.625
18.077, 69.259, 27.833
18.340, 69.250, 27.066
18.607, 69.238, 26.329
18.877, 69.227, 25.624
19.152, 69.216, 24.943
19.431, 69.208, 24.273
19.713, 69.201, 23.604
20.000, 69.193, 22.932
20.291, 69.183, 22.262
20.586, 69.172, 21.599
20.885, 69.160, 20.948
21.189, 69.148, 20.302
21.497, 69.136, 19.646
21.810, 69.122, 18.971
22.127, 69.102, 18.283
22.449, 69.074, 17.610
22.776, 69.038, 16.991
23.107, 69.003, 16.455
23.443, 68.977, 15.993
23.784, 68.966, 15.547
24.130, 68.971, 15.037
24.481, 68.981, 14.406
24.837, 68.981, 13.659
25.198, 68.963, 12.864
25.565, 68.925, 12.119
25.937, 68.879, 11.488
26.314, 68.837, 10.969
26.697, 68.807, 10.498
27.085, 68.786, 10.010
27.479, 68.764, 9.486
27.879, 68.737, 8.959
28.284, 68.706, 8.473
28.696, 68.677, 8.029
29.113, 68.655, 7.587
29.537, 68.636, 7.102
29.966, 68.610, 6.574
30.402, 68.576, 6.043
30.844, 68.536, 5.554
31.293, 68.499, 5.111
31.748, 68.469, 4.678
32.210, 68.445, 4.209
32.678, 68.422, 3.688
33.154, 68.394, 3.140
33.636, 68.361, 2.612
34.125, 68.326, 2.134
34.621, 68.297, 1.702
35.125, 68.273, 1.288
35.636, 68.251, 0.871
36.154, 68.227, 0.451
36.680, 68.196, 0.044
37.214, 68.156, -0.318
37.755, 68.113, -0.612
38.304, 68.075, -0.865
38.861, 68.043, -1.177
39.427, 68.005, -1.604
40.000, 67.947, -2.078
40.582, 67.879, -2.484
41.172, 67.823, -2.853
41.771, 67.781, -3.288
42.379, 67.741, -3.785
42.995, 67.705, -4.259
43.620, 67.679, -4.705
44.255, 67.657, -5.102
44.898, 67.642, -5.378
45.552, 67.643, -5.592
46.214, 67.635, -5.844
46.886, 67.594, -5.908
47.568, 67.573, -5.565
48.260, 67.645, -5.373
48.962, 67.723, -6.245
49.674, 67.609, -7.816
50.397, 67.319, -8.295
51.130, 67.200, -7.529
51.874, 67.296, -8.226
52.628, 67.121, -10.408
53.394, 66.702, -9.962
54.170, 66.792, -7.548
54.958, 67.186, -8.364
55.758, 67.136, -10.753
56.569, 66.902, -10.607
57.391, 66.917, -9.782
58.226, 66.917, -9.867
59.073, 66.849, -9.639
59.932, 66.819, -9.593
60.804, 66.730, -9.884
61.688, 66.621, -10.047
62.586, 66.518, -10.260
63.496, 66.430, -10.250
64.420, 66.423, -10.256
65.357, 66.427, -10.676
66.307, 66.384, -11.057
67.272, 66.340, -11.236
68.250, 66.282, -11.432
69.243, 66.210, -11.481
70.250, 66.158, -11.590
71.272, 66.090, -11.823
72.309, 66.026, -11.948
73.360, 65.980, -12.133
74.427, 65.920, -12.279
75.510, 65.871, -12.257
76.608, 65.835, -12.343
77.723, 65.770, -12.484
78.853, 65.701, -12.483
80.000, 65.655, -12.498
81.164, 65.620, -12.633
82.344, 65.576, -12.875
83.542, 65.508, -13.000
84.757, 65.447, -13.009
85.990, 65.377, -12.997
87.241, 65.312, -13.049
88.510, 65.216, -13.062
89.797, 65.165, -12.955
91.103, 65.106, -13.164
92.428, 65.018, -13.270
93.773, 64.924, -13.255
95.137, 64.847, -12.996
96.520, 64.842, -13.062
97.924, 64.790, -13.317
99.349, 64.725, -13.783
100.794, 64.557, -13.337
102.260, 64.537, -12.640
103.747, 64.492, -12.354
105.256, 64.408, -12.197
106.787, 64.315, -11.884
108.340, 64.245, -11.718
109.916, 64.173, -11.438
111.515, 64.130, -11.225
113.137, 64.058, -10.932
114.783, 63.994, -10.542
116.452, 63.913, -10.238
118.146, 63.839, -9.917
119.865, 63.762, -9.693
121.608, 63.691, -9.389
123.377, 63.616, -8.982
125.171, 63.515, -8.410
126.992, 63.408, -7.505
128.839, 63.326, -6.634
130.713, 63.229, -5.609
132.615, 63.207, -4.361
134.543, 63.218, -3.009
136.500, 63.274, -1.691
138.486, 63.360, -0.352
140.500, 63.507, 0.606
142.544, 63.672, 1.169
144.617, 63.852, 1.389
146.721, 63.999, 1.320
148.855, 64.083, 1.047
151.020, 64.096, 0.684
153.217, 64.069, 0.742
155.445, 64.075, 1.076
157.706, 64.112, 1.655
160.000, 64.205, 2.284
162.327, 64.345, 2.655
164.688, 64.507, 2.676
167.084, 64.666, 2.391
169.514, 64.798, 1.809
171.980, 64.888, 1.046
174.481, 64.950, 0.217
177.019, 64.978, -0.659
179.594, 64.966, -1.445
182.206, 64.941, -2.094
184.856, 64.900, -2.663
187.545, 64.854, -3.136
190.273, 64.796, -3.546
193.041, 64.737, -3.910
195.849, 64.677, -4.179
198.697, 64.619, -4.395
201.587, 64.555, -4.590
204.520, 64.488, -4.720
207.494, 64.426, -4.863
210.512, 64.360, -4.961
213.574, 64.292, -5.004
216.681, 64.225, -5.009
219.833, 64.158, -4.978
223.030, 64.089, -4.905
226.274, 64.025, -4.784
229.565, 63.962, -4.616
232.905, 63.897, -4.409
236.292, 63.838, -4.175
239.729, 63.787, -3.914
243.216, 63.742, -3.598
246.754, 63.703, -3.281
250.343, 63.669, -2.968
253.984, 63.650, -2.728
257.678, 63.635, -2.523
261.426, 63.617, -2.341
265.229, 63.600, -2.224
269.087, 63.579, -2.146
273.001, 63.554, -2.083
276.972, 63.518, -1.996
281.000, 63.471, -1.949
285.088, 63.420, -1.902
289.234, 63.371, -1.794
293.441, 63.313, -1.627
297.710, 63.253, -1.412
302.040, 63.198, -1.220
306.433, 63.143, -0.995
310.890, 63.080, -0.766
315.412, 63.019, -0.531
320.000, 62.959, -0.229
324.655, 62.890, 0.057
329.377, 62.823, 0.403
334.168, 62.753, 0.754
339.028, 62.679, 1.149
343.959, 62.608, 1.572
348.962, 62.535, 2.033
354.038, 62.459, 2.558
359.188, 62.381, 3.145
364.412, 62.302, 3.775
369.713, 62.224, 4.469
375.090, 62.148, 5.274
380.546, 62.074, 6.134
386.081, 62.007, 7.077
391.697, 61.948, 8.139
397.395, 61.903, 9.286
403.175, 61.877, 10.519
409.039, 61.876, 11.846
414.989, 61.897, 13.151
421.025, 61.944, 14.434
427.149, 62.019, 15.650
433.362, 62.109, 16.771
439.665, 62.209, 17.738
446.060, 62.323, 18.606
452.548, 62.439, 19.343
459.131, 62.557, 19.959
465.809, 62.672, 20.473
472.584, 62.781, 20.892
479.458, 62.880, 21.223
486.432, 62.968, 21.524
493.507, 63.047, 21.807
500.686, 63.120, 22.079
507.968, 63.189, 22.357
515.357, 63.257, 22.631
522.853, 63.326, 22.899
530.458, 63.388, 23.148
538.174, 63.447, 23.379
546.002, 63.503, 23.577
553.943, 63.551, 23.760
562.001, 63.595, 23.992
570.175, 63.638, 24.246
578.469, 63.678, 24.488
586.883, 63.716, 24.747
595.419, 63.749, 25.034
604.080, 63.782, 25.343
612.866, 63.813, 25.653
621.780, 63.844, 26.025
630.824, 63.878, 26.446
640.000, 63.920, 26.894
649.309, 63.970, 27.357
658.753, 64.028, 27.790
668.335, 64.095, 28.172
678.056, 64.165, 28.507
687.919, 64.233, 28.789
697.925, 64.298, 29.004
708.076, 64.355, 29.196
718.376, 64.402, 29.386
728.825, 64.444, 29.595
739.426, 64.483, 29.815
750.181, 64.519, 30.066
761.093, 64.553, 30.336
772.163, 64.585, 30.642
783.394, 64.616, 30.962
794.789, 64.647, 31.312
806.349, 64.681, 31.686
818.078, 64.715, 32.086
829.977, 64.752, 32.512
842.050, 64.791, 32.945
854.297, 64.833, 33.406
866.724, 64.878, 33.874
879.330, 64.926, 34.341
892.120, 64.977, 34.829
905.097, 65.031, 35.328
918.262, 65.086, 35.838
931.618, 65.146, 36.360
945.169, 65.211, 36.888
958.917, 65.283, 37.424
972.864, 65.360, 37.963
987.015, 65.444, 38.492
1001.371, 65.533, 38.996
1015.937, 65.629, 39.467
1030.714, 65.728, 39.906
1045.706, 65.831, 40.309
1060.916, 65.936, 40.672
1076.347, 66.040, 40.996
1092.003, 66.141, 41.297
1107.887, 66.241, 41.584
1124.001, 66.341, 41.849
1140.350, 66.442, 42.104
1156.937, 66.543, 42.340
1173.765, 66.643, 42.561
1190.838, 66.743, 42.762
1208.159, 66.843, 42.944
1225.732, 66.942, 43.110
1243.561, 67.040, 43.261
1261.649, 67.136, 43.393
1280.000, 67.231, 43.510
1298.618, 67.325, 43.609
1317.507, 67.415, 43.700
1336.670, 67.502, 43.781
1356.113, 67.585, 43.853
1375.838, 67.665, 43.928
1395.850, 67.741, 44.007
1416.153, 67.815, 44.096
1436.751, 67.885, 44.202
1457.649, 67.952, 44.329
1478.851, 68.020, 44.483
1500.362, 68.086, 44.669
1522.185, 68.153, 44.886
1544.326, 68.224, 45.126
1566.789, 68.297, 45.381
1589.578, 68.372, 45.647
1612.699, 68.449, 45.921
1636.156, 68.528, 46.205
1659.955, 68.609, 46.502
1684.099, 68.691, 46.812
1708.595, 68.775, 47.135
1733.447, 68.862, 47.479
1758.661, 68.952, 47.843
1784.241, 69.048, 48.222
1810.193, 69.148, 48.611
1836.523, 69.253, 49.015
1863.236, 69.365, 49.422
1890.338, 69.482, 49.829
1917.833, 69.604, 50.234
1945.729, 69.733, 50.631
1974.030, 69.867, 51.026
2002.743, 70.008, 51.419
2031.873, 70.155, 51.802
2061.428, 70.308, 52.174
2091.412, 70.469, 52.529
2121.832, 70.635, 52.864
2152.695, 70.810, 53.181
2184.007, 70.992, 53.468
2215.774, 71.181, 53.728
2248.003, 71.378, 53.960
2280.701, 71.583, 54.154
2313.874, 71.797, 54.304
2347.530, 72.018, 54.404
2381.676, 72.248, 54.449
2416.318, 72.487, 54.426
2451.464, 72.732, 54.333
2487.122, 72.984, 54.164
2523.298, 73.244, 53.908
2560.000, 73.510, 53.556
2597.236, 73.783, 53.098
2635.014, 74.060, 52.518
2673.341, 74.341, 51.809
2712.226, 74.622, 50.955
2751.676, 74.904, 49.949
2791.700, 75.182, 48.782
2832.306, 75.453, 47.446
2873.503, 75.713, 45.942
2915.299, 75.958, 44.266
2957.703, 76.185, 42.419
3000.724, 76.389, 40.410
3044.370, 76.566, 38.257
3088.652, 76.711, 35.984
3133.577, 76.821, 33.621
3179.156, 76.894, 31.203
3225.398, 76.930, 28.766
3272.312, 76.927, 26.353
3319.909, 76.887, 24.005
3368.198, 76.813, 21.758
3417.190, 76.710, 19.640
3466.894, 76.584, 17.676
3517.321, 76.437, 15.881
3568.482, 76.277, 14.267
3620.387, 76.108, 12.834
3673.046, 75.934, 11.578
3726.472, 75.760, 10.490
3780.675, 75.590, 9.556
3835.666, 75.426, 8.764
3891.457, 75.273, 8.088
3948.060, 75.132, 7.505
4005.486, 75.003, 6.985
4063.747, 74.890, 6.492
4122.855, 74.788, 5.993
4182.824, 74.694, 5.472
4243.664, 74.607, 4.909
4305.390, 74.524, 4.273
4368.013, 74.437, 3.548
4431.547, 74.339, 2.740
4496.005, 74.222, 1.878
4561.401, 74.080, 1.004
4627.749, 73.909, 0.191
4695.061, 73.708, -0.484
4763.352, 73.487, -0.958
4832.637, 73.253, -1.173
4902.929, 73.018, -1.092
4974.244, 72.797, -0.702
5046.596, 72.607, -0.039
5120.000, 72.460, 0.828
5194.472, 72.365, 1.801
5270.027, 72.324, 2.767
5346.682, 72.332, 3.618
5424.451, 72.382, 4.262
5503.352, 72.459, 4.636
5583.399, 72.547, 4.709
5664.612, 72.632, 4.486
5747.006, 72.701, 4.003
5830.598, 72.744, 3.313
5915.406, 72.752, 2.501
6001.447, 72.726, 1.666
6088.740, 72.673, 0.890
6177.303, 72.604, 0.213
6267.154, 72.528, -0.349
6358.312, 72.457, -0.803
6450.796, 72.402, -1.185
6544.625, 72.373, -1.566
6639.818, 72.375, -2.037
6736.397, 72.409, -2.718
6834.380, 72.468, -3.735
6933.789, 72.541, -5.223
7034.643, 72.605, -7.314
7136.964, 72.625, -10.103
7240.773, 72.552, -13.606
7346.093, 72.326, -17.661
7452.944, 71.890, -21.772
7561.350, 71.262, -25.145
7671.332, 70.538, -27.574
7782.915, 69.748, -29.198
7896.120, 68.905, -29.897
8010.971, 68.047, -29.577
8127.493, 67.217, -28.307
8245.711, 66.446, -26.240
8365.647, 65.747, -23.552
8487.328, 65.124, -20.368
8610.779, 64.579, -16.763
8736.026, 64.119, -12.810
8863.095, 63.750, -8.586
8992.011, 63.478, -4.195
9122.803, 63.308, 0.273
9255.497, 63.241, 4.703
9390.121, 63.278, 8.966
9526.704, 63.414, 12.949
9665.273, 63.641, 16.516
9805.857, 63.948, 19.582
9948.487, 64.331, 22.046
10093.191, 64.778, 23.698
10240.000, 65.245, 24.372
10388.944, 65.679, 24.052
10540.055, 66.027, 22.948
10693.363, 66.278, 21.412
10848.902, 66.421, 19.664
11006.703, 66.466, 18.095
11166.799, 66.463, 16.965
11329.224, 66.469, 16.286
11494.012, 66.538, 15.896
11661.195, 66.708, 15.434
11830.812, 66.990, 14.469
12002.895, 67.361, 12.509
12177.480, 67.762, 9.169
12354.606, 68.131, 4.161
12534.309, 68.357, -2.895
12716.624, 68.245, -11.724
12901.592, 67.667, -20.848
13089.250, 66.698, -28.562
13279.637, 65.547, -34.403
13472.794, 64.315, -38.876
13668.760, 63.014, -41.824
13867.577, 61.754, -43.075
14069.285, 60.689, -43.209
14273.928, 59.910, -43.695
14481.547, 59.288, -46.586
14692.186, 58.368, -52.632
14905.889, 56.714, -58.875
15122.700, 54.445, -61.178
15342.664, 52.053, -58.555
15565.829, 49.897, -52.346
15792.239, 48.102, -43.956
16021.942, 46.675, -34.189
16254.986, 45.668, -23.183
16491.422, 45.173, -12.786
16731.295, 44.969, -3.062
16974.656, 45.178, 6.027
17221.559, 45.878, 13.224
17472.053, 47.068, 16.464
17726.189, 48.422, 12.045
17984.021, 48.850, -2.421
18245.605, 47.275, -18.509
18510.994, 44.157, -25.185
18780.242, 40.408, -19.724
19053.408, 36.869, 3.854
19330.547, 38.454, 39.175
19611.715, 41.925, 41.872
19896.975, 42.592, 31.537
