* Measurement data measured by REW V5.19
* Source: ASIO MOTU M Series, In 1
* Format: 1M Log Swept Sine, 1 sweep at -3.0 dBFS  With no timing reference
* Dated: 20 Mar, 2023 11:53:56 AM
* REW Settings:
*  C-weighting compensation: Off
*  Target level: 75.0 dB
* Note: ; 
* Measurement: Mar 20 11:53:56
* Smoothing: 1/48 octave
* Frequency Step: 1/48 octave
* Start Frequency: 10.1 Hz
*
* Freq(Hz), SPL(dB), Phase(degrees)
10.145, 63.875, -108.903
10.293, 63.903, -109.546
10.443, 63.933, -110.398
10.595, 63.978, -111.498
10.749, 64.025, -112.626
10.905, 64.060, -113.446
11.064, 64.093, -114.148
11.225, 64.133, -114.956
11.388, 64.177, -115.806
11.554, 64.222, -116.632
11.722, 64.268, -117.448
11.892, 64.313, -118.275
12.065, 64.356, -119.113
12.241, 64.397, -119.986
12.419, 64.433, -120.875
12.599, 64.462, -121.738
12.782, 64.485, -122.579
12.968, 64.503, -123.399
13.157, 64.517, -124.174
13.348, 64.528, -124.881
13.543, 64.541, -125.535
13.740, 64.558, -126.137
13.939, 64.583, -126.708
14.142, 64.615, -127.261
14.348, 64.656, -127.821
14.557, 64.702, -128.413
14.768, 64.753, -129.050
14.983, 64.802, -129.735
15.201, 64.848, -130.461
15.422, 64.888, -131.220
15.646, 64.921, -131.983
15.874, 64.947, -132.733
16.105, 64.966, -133.455
16.339, 64.983, -134.135
16.577, 65.000, -134.778
16.818, 65.017, -135.388
17.063, 65.038, -135.980
17.311, 65.061, -136.566
17.563, 65.085, -137.154
17.818, 65.109, -137.747
18.077, 65.132, -138.341
18.340, 65.153, -138.926
18.607, 65.172, -139.498
18.877, 65.191, -140.053
19.152, 65.210, -140.590
19.431, 65.230, -141.116
19.713, 65.252, -141.638
20.000, 65.274, -142.160
20.291, 65.295, -142.681
20.586, 65.315, -143.199
20.885, 65.335, -143.711
21.189, 65.354, -144.212
21.497, 65.372, -144.703
21.810, 65.392, -145.188
22.127, 65.411, -145.669
22.449, 65.430, -146.149
22.776, 65.449, -146.627
23.107, 65.468, -147.100
23.443, 65.486, -147.569
23.784, 65.504, -148.034
24.130, 65.521, -148.498
24.481, 65.539, -148.962
24.837, 65.555, -149.423
25.198, 65.570, -149.878
25.565, 65.584, -150.321
25.937, 65.598, -150.752
26.314, 65.612, -151.173
26.697, 65.628, -151.589
27.085, 65.644, -152.002
27.479, 65.661, -152.415
27.879, 65.677, -152.828
28.284, 65.693, -153.240
28.696, 65.709, -153.647
29.113, 65.724, -154.045
29.537, 65.740, -154.435
29.966, 65.757, -154.824
30.402, 65.774, -155.220
30.844, 65.791, -155.625
31.293, 65.806, -156.033
31.748, 65.817, -156.431
32.210, 65.828, -156.811
32.678, 65.839, -157.172
33.154, 65.851, -157.522
33.636, 65.864, -157.867
34.125, 65.879, -158.216
34.621, 65.894, -158.577
35.125, 65.906, -158.945
35.636, 65.915, -159.303
36.154, 65.923, -159.632
36.680, 65.935, -159.935
37.214, 65.951, -160.243
37.755, 65.969, -160.576
38.304, 65.985, -160.923
38.861, 65.999, -161.262
39.427, 66.015, -161.592
40.000, 66.031, -161.924
40.582, 66.048, -162.250
41.172, 66.068, -162.574
41.771, 66.091, -162.932
42.379, 66.107, -163.329
42.995, 66.113, -163.693
43.620, 66.121, -163.980
44.255, 66.138, -164.267
44.898, 66.156, -164.620
45.552, 66.164, -164.976
46.214, 66.171, -165.275
46.886, 66.186, -165.571
47.568, 66.203, -165.902
48.260, 66.221, -166.252
48.962, 66.239, -166.646
49.674, 66.249, -167.058
50.397, 66.256, -167.402
51.130, 66.273, -167.733
51.874, 66.287, -168.128
52.628, 66.289, -168.483
53.394, 66.297, -168.739
54.170, 66.319, -169.040
54.958, 66.334, -169.451
55.758, 66.330, -169.866
56.569, 66.318, -170.179
57.391, 66.319, -170.424
58.226, 66.332, -170.742
59.073, 66.339, -171.152
59.932, 66.334, -171.539
60.804, 66.331, -171.855
61.688, 66.336, -172.167
62.586, 66.341, -172.509
63.496, 66.343, -172.839
64.420, 66.344, -173.157
65.357, 66.344, -173.463
66.307, 66.346, -173.766
67.272, 66.347, -174.102
68.250, 66.342, -174.419
69.243, 66.341, -174.721
70.250, 66.342, -175.036
71.272, 66.344, -175.370
72.309, 66.341, -175.726
73.360, 66.336, -176.042
74.427, 66.334, -176.368
75.510, 66.328, -176.703
76.608, 66.323, -177.015
77.723, 66.318, -177.337
78.853, 66.313, -177.659
80.000, 66.307, -178.002
81.164, 66.297, -178.330
82.344, 66.288, -178.644
83.542, 66.278, -178.978
84.757, 66.265, -179.299
85.990, 66.250, -179.611
87.241, 66.236, -179.912
88.510, 66.222, 179.797
89.797, 66.209, 179.505
91.103, 66.194, 179.208
92.428, 66.180, 178.926
93.773, 66.167, 178.644
95.137, 66.154, 178.360
96.520, 66.141, 178.072
97.924, 66.126, 177.770
99.349, 66.108, 177.467
100.794, 66.091, 177.153
102.260, 66.069, 176.817
103.747, 66.045, 176.498
105.256, 66.020, 176.185
106.787, 65.993, 175.878
108.340, 65.962, 175.582
109.916, 65.930, 175.306
111.515, 65.897, 175.046
113.137, 65.865, 174.791
114.783, 65.829, 174.538
116.452, 65.790, 174.313
118.146, 65.751, 174.109
119.865, 65.710, 173.927
121.608, 65.671, 173.733
123.377, 65.631, 173.557
125.171, 65.590, 173.396
126.992, 65.548, 173.253
128.839, 65.505, 173.141
130.713, 65.459, 173.048
132.615, 65.412, 173.013
134.543, 65.368, 172.988
136.500, 65.324, 173.015
138.486, 65.289, 173.080
140.500, 65.263, 173.156
142.544, 65.239, 173.252
144.617, 65.224, 173.336
146.721, 65.214, 173.398
148.855, 65.210, 173.440
151.020, 65.211, 173.484
153.217, 65.219, 173.497
155.445, 65.225, 173.429
157.706, 65.225, 173.346
160.000, 65.222, 173.221
162.327, 65.206, 173.064
164.688, 65.171, 172.990
167.084, 65.153, 173.033
169.514, 65.127, 173.165
171.980, 65.116, 173.459
174.481, 65.138, 173.737
177.019, 65.180, 173.947
179.594, 65.254, 174.085
182.206, 65.339, 173.985
184.856, 65.419, 173.651
187.545, 65.483, 173.190
190.273, 65.527, 172.668
193.041, 65.551, 172.098
195.849, 65.559, 171.556
198.697, 65.563, 171.073
201.587, 65.567, 170.613
204.520, 65.572, 170.127
207.494, 65.576, 169.607
210.512, 65.577, 169.029
213.574, 65.570, 168.421
216.681, 65.555, 167.802
219.833, 65.531, 167.209
223.030, 65.491, 166.529
226.274, 65.433, 165.858
229.565, 65.374, 165.269
232.905, 65.309, 164.718
236.292, 65.235, 164.209
239.729, 65.156, 163.763
243.216, 65.073, 163.390
246.754, 64.991, 163.033
250.343, 64.911, 162.713
253.984, 64.830, 162.421
257.678, 64.749, 162.145
261.426, 64.669, 161.895
265.229, 64.587, 161.660
269.087, 64.504, 161.449
273.001, 64.421, 161.260
276.972, 64.336, 161.056
281.000, 64.251, 160.870
285.088, 64.163, 160.723
289.234, 64.073, 160.600
293.441, 63.982, 160.482
297.710, 63.892, 160.385
302.040, 63.798, 160.331
306.433, 63.703, 160.275
310.890, 63.608, 160.255
315.412, 63.513, 160.253
320.000, 63.415, 160.297
324.655, 63.313, 160.330
329.377, 63.212, 160.414
334.168, 63.109, 160.531
339.028, 63.006, 160.692
343.959, 62.900, 160.874
348.962, 62.796, 161.089
354.038, 62.696, 161.372
359.188, 62.593, 161.706
364.412, 62.491, 162.081
369.713, 62.389, 162.490
375.090, 62.290, 162.970
380.546, 62.196, 163.530
386.081, 62.107, 164.151
391.697, 62.028, 164.841
397.395, 61.962, 165.592
403.175, 61.907, 166.382
409.039, 61.873, 167.210
414.989, 61.859, 168.040
421.025, 61.865, 168.800
427.149, 61.883, 169.465
433.362, 61.908, 170.028
439.665, 61.933, 170.493
446.060, 61.957, 170.859
452.548, 61.970, 171.188
459.131, 61.978, 171.514
465.809, 61.983, 171.857
472.584, 61.985, 172.213
479.458, 61.988, 172.547
486.432, 61.999, 172.814
493.507, 62.000, 173.098
500.686, 61.999, 173.432
507.968, 62.000, 173.746
515.357, 61.989, 174.094
522.853, 61.980, 174.489
530.458, 61.985, 174.911
538.174, 61.995, 175.307
546.002, 62.010, 175.677
553.943, 62.024, 176.045
562.001, 62.038, 176.408
570.175, 62.055, 176.770
578.469, 62.073, 177.123
586.883, 62.094, 177.472
595.419, 62.116, 177.808
604.080, 62.139, 178.130
612.866, 62.160, 178.446
621.780, 62.182, 178.751
630.824, 62.203, 179.048
640.000, 62.222, 179.346
649.309, 62.241, 179.647
658.753, 62.258, 179.976
668.335, 62.273, -179.680
678.056, 62.290, -179.319
687.919, 62.309, -178.927
697.925, 62.330, -178.507
708.076, 62.357, -178.067
718.376, 62.388, -177.618
728.825, 62.424, -177.167
739.426, 62.464, -176.722
750.181, 62.508, -176.283
761.093, 62.553, -175.847
772.163, 62.601, -175.408
783.394, 62.651, -174.973
794.789, 62.702, -174.526
806.349, 62.755, -174.067
818.078, 62.811, -173.598
829.977, 62.870, -173.116
842.050, 62.933, -172.619
854.297, 63.001, -172.110
866.724, 63.073, -171.595
879.330, 63.151, -171.071
892.120, 63.233, -170.538
905.097, 63.322, -170.006
918.262, 63.416, -169.466
931.618, 63.515, -168.921
945.169, 63.620, -168.374
958.917, 63.731, -167.823
972.864, 63.849, -167.270
987.015, 63.975, -166.712
1001.371, 64.109, -166.157
1015.937, 64.252, -165.611
1030.714, 64.404, -165.080
1045.706, 64.563, -164.564
1060.916, 64.730, -164.063
1076.347, 64.906, -163.588
1092.003, 65.092, -163.131
1107.887, 65.285, -162.691
1124.001, 65.489, -162.273
1140.350, 65.704, -161.883
1156.937, 65.929, -161.515
1173.765, 66.167, -161.182
1190.838, 66.417, -160.891
1208.159, 66.682, -160.655
1225.732, 66.960, -160.484
1243.561, 67.253, -160.395
1261.649, 67.561, -160.403
1280.000, 67.882, -160.521
1298.618, 68.216, -160.762
1317.507, 68.561, -161.136
1336.670, 68.918, -161.661
1356.113, 69.284, -162.341
1375.838, 69.659, -163.200
1395.850, 70.041, -164.256
1416.153, 70.429, -165.533
1436.751, 70.819, -167.061
1457.649, 71.207, -168.865
1478.851, 71.588, -170.983
1500.362, 71.953, -173.436
1522.185, 72.291, -176.236
1544.326, 72.589, -179.384
1566.789, 72.834, 177.156
1589.578, 73.011, 173.445
1612.699, 73.110, 169.585
1636.156, 73.124, 165.699
1659.955, 73.053, 161.931
1684.099, 72.903, 158.414
1708.595, 72.688, 155.270
1733.447, 72.423, 152.581
1758.661, 72.129, 150.386
1784.241, 71.826, 148.685
1810.193, 71.532, 147.435
1836.523, 71.262, 146.567
1863.236, 71.025, 145.986
1890.338, 70.825, 145.587
1917.833, 70.659, 145.271
1945.729, 70.522, 144.952
1974.030, 70.402, 144.592
2002.743, 70.286, 144.184
2031.873, 70.166, 143.756
2061.428, 70.036, 143.359
2091.412, 69.896, 143.046
2121.832, 69.749, 142.858
2152.695, 69.600, 142.830
2184.007, 69.453, 142.971
2215.774, 69.315, 143.280
2248.003, 69.191, 143.753
2280.701, 69.090, 144.373
2313.874, 69.018, 145.120
2347.530, 68.979, 145.972
2381.676, 68.974, 146.908
2416.318, 69.010, 147.885
2451.464, 69.084, 148.871
2487.122, 69.200, 149.820
2523.298, 69.359, 150.681
2560.000, 69.561, 151.402
2597.236, 69.805, 151.919
2635.014, 70.090, 152.152
2673.341, 70.410, 152.030
2712.226, 70.759, 151.453
2751.676, 71.124, 150.320
2791.700, 71.487, 148.529
2832.306, 71.819, 145.994
2873.503, 72.079, 142.680
2915.299, 72.224, 138.642
2957.703, 72.200, 134.080
3000.724, 71.973, 129.349
3044.370, 71.523, 124.932
3088.652, 70.862, 121.361
3133.577, 70.031, 119.137
3179.156, 69.095, 118.677
3225.398, 68.151, 120.284
3272.312, 67.337, 123.986
3319.909, 66.813, 129.233
3368.198, 66.670, 134.820
3417.190, 66.845, 139.408
3466.894, 67.165, 142.335
3517.321, 67.473, 143.794
3568.482, 67.693, 144.402
3620.387, 67.821, 144.740
3673.046, 67.888, 145.172
3726.472, 67.940, 145.832
3780.675, 68.016, 146.693
3835.666, 68.145, 147.597
3891.457, 68.341, 148.307
3948.060, 68.607, 148.575
4005.486, 68.935, 148.084
4063.747, 69.283, 146.324
4122.855, 69.534, 142.883
4182.824, 69.515, 138.001
4243.664, 69.097, 132.800
4305.390, 68.285, 128.823
4368.013, 67.209, 127.253
4431.547, 66.066, 128.457
4496.005, 65.037, 132.054
4561.401, 64.234, 137.251
4627.749, 63.686, 143.237
4695.061, 63.365, 149.412
4763.352, 63.221, 155.445
4832.637, 63.214, 161.226
4902.929, 63.316, 166.760
4974.244, 63.518, 172.074
5046.596, 63.823, 177.154
5120.000, 64.237, -178.066
5194.472, 64.771, -173.718
5270.027, 65.435, -170.016
5346.682, 66.252, -167.383
5424.451, 67.161, -166.079
5503.352, 68.050, -166.373
5583.399, 68.827, -168.496
5664.612, 69.363, -172.165
5747.006, 69.561, -176.497
5830.598, 69.421, 179.724
5915.406, 69.055, 177.423
6001.447, 68.619, 176.838
6088.740, 68.248, 177.662
6177.303, 67.992, 179.309
6267.154, 67.839, -178.583
6358.312, 67.819, -176.266
6450.796, 67.944, -174.067
6544.625, 68.202, -172.390
6639.818, 68.558, -171.498
6736.397, 68.992, -171.655
6834.380, 69.450, -173.250
6933.789, 69.836, -176.594
7034.643, 70.016, 178.489
7136.964, 69.933, 172.758
7240.773, 69.620, 166.517
7346.093, 69.032, 159.244
7452.944, 67.888, 151.504
7561.350, 66.042, 146.291
7671.332, 63.712, 146.930
7782.915, 61.541, 154.767
7896.120, 60.350, 166.381
8010.971, 60.143, 175.805
8127.493, 60.185, -179.187
8245.711, 59.986, -176.992
8365.647, 59.428, -175.250
8487.328, 58.607, -172.141
8610.779, 57.828, -167.173
8736.026, 57.102, -162.254
8863.095, 56.316, -155.785
8992.011, 55.769, -148.074
9122.803, 55.410, -140.932
9255.497, 55.117, -133.644
9390.121, 54.981, -126.385
9526.704, 55.016, -119.698
9665.273, 55.211, -114.255
9805.857, 55.486, -111.066
9948.487, 55.589, -111.358
10093.191, 54.968, -114.870
10240.000, 53.055, -115.722
10388.944, 50.277, -104.130
10540.055, 48.713, -80.364
10693.363, 49.460, -57.232
10848.902, 51.161, -41.571
11006.703, 52.987, -31.885
11166.799, 54.777, -26.423
11329.224, 56.455, -24.728
11494.012, 57.864, -26.744
11661.195, 58.794, -31.765
11830.812, 59.122, -38.060
12002.895, 58.883, -43.710
12177.480, 58.239, -47.450
12354.606, 57.370, -48.990
12534.309, 56.404, -48.376
12716.624, 55.466, -45.739
12901.592, 54.693, -41.560
13089.250, 54.180, -36.924
13279.637, 53.874, -33.105
13472.794, 53.606, -30.551
13668.760, 53.262, -28.902
13867.577, 52.804, -27.762
14069.285, 52.198, -26.977
14273.928, 51.307, -25.587
14481.547, 50.360, -20.979
14692.186, 50.046, -15.075
14905.889, 50.374, -12.823
15122.700, 50.835, -18.029
15342.664, 50.471, -32.861
15565.829, 48.121, -52.098
15792.239, 43.270, -61.842
16021.942, 36.280, -39.995
16254.986, 33.105, 4.781
16491.422, 34.453, 25.775
16731.295, 34.688, 33.403
16974.656, 34.188, 41.172
17221.559, 33.655, 49.489
17472.053, 33.283, 56.680
17726.189, 33.117, 60.640
17984.021, 33.114, 57.241
18245.605, 32.912, 38.463
18510.994, 31.866, -3.269
18780.242, 31.543, -55.544
19053.408, 32.999, -97.649
19330.547, 34.666, -113.949
19611.715, 38.025, -120.415
19896.975, 40.376, -132.721
