* Measurement data measured by REW V5.19
* Source: ASIO MOTU M Series, In 1
* Format: 1M Log Swept Sine, 1 sweep at -3.0 dBFS  With no timing reference
* Dated: 20 Mar, 2023 11:51:20 AM
* REW Settings:
*  C-weighting compensation: Off
*  Target level: 75.0 dB
* Note: ; 
* Measurement: Mar 20 11:51:20
* Smoothing: 1/48 octave
* Frequency Step: 1/48 octave
* Start Frequency: 10.1 Hz
*
* Freq(Hz), SPL(dB), Phase(degrees)
10.145, 62.761, -109.248
10.293, 62.792, -109.858
10.443, 62.824, -110.675
10.595, 62.874, -111.742
10.749, 62.926, -112.852
10.905, 62.965, -113.691
11.064, 63.000, -114.432
11.225, 63.038, -115.276
11.388, 63.078, -116.160
11.554, 63.115, -117.006
11.722, 63.151, -117.825
11.892, 63.186, -118.627
12.065, 63.220, -119.414
12.241, 63.255, -120.209
12.419, 63.289, -121.002
12.599, 63.321, -121.766
12.782, 63.353, -122.517
12.968, 63.385, -123.273
13.157, 63.416, -124.020
13.348, 63.446, -124.749
13.543, 63.476, -125.470
13.740, 63.505, -126.182
13.939, 63.533, -126.883
14.142, 63.561, -127.573
14.348, 63.589, -128.253
14.557, 63.617, -128.926
14.768, 63.644, -129.592
14.983, 63.672, -130.250
15.201, 63.698, -130.902
15.422, 63.725, -131.549
15.646, 63.750, -132.188
15.874, 63.775, -132.820
16.105, 63.799, -133.444
16.339, 63.823, -134.059
16.577, 63.846, -134.664
16.818, 63.869, -135.260
17.063, 63.891, -135.846
17.311, 63.914, -136.424
17.563, 63.937, -136.995
17.818, 63.960, -137.560
18.077, 63.982, -138.121
18.340, 64.005, -138.679
18.607, 64.027, -139.234
18.877, 64.048, -139.785
19.152, 64.068, -140.327
19.431, 64.088, -140.859
19.713, 64.107, -141.379
20.000, 64.126, -141.888
20.291, 64.146, -142.390
20.586, 64.167, -142.887
20.885, 64.188, -143.383
21.189, 64.208, -143.877
21.497, 64.228, -144.369
21.810, 64.246, -144.853
22.127, 64.264, -145.328
22.449, 64.282, -145.793
22.776, 64.299, -146.247
23.107, 64.318, -146.694
23.443, 64.336, -147.136
23.784, 64.356, -147.577
24.130, 64.375, -148.018
24.481, 64.393, -148.461
24.837, 64.411, -148.901
25.198, 64.426, -149.332
25.565, 64.441, -149.750
25.937, 64.457, -150.153
26.314, 64.474, -150.544
26.697, 64.493, -150.933
27.085, 64.513, -151.328
27.479, 64.533, -151.732
27.879, 64.553, -152.143
28.284, 64.571, -152.554
28.696, 64.589, -152.960
29.113, 64.605, -153.362
29.537, 64.622, -153.758
29.966, 64.638, -154.148
30.402, 64.654, -154.532
30.844, 64.670, -154.911
31.293, 64.686, -155.287
31.748, 64.702, -155.659
32.210, 64.718, -156.027
32.678, 64.733, -156.391
33.154, 64.748, -156.749
33.636, 64.762, -157.099
34.125, 64.777, -157.441
34.621, 64.792, -157.782
35.125, 64.808, -158.133
35.636, 64.821, -158.491
36.154, 64.830, -158.838
36.680, 64.839, -159.153
37.214, 64.853, -159.451
37.755, 64.871, -159.768
38.304, 64.888, -160.119
38.861, 64.899, -160.475
39.427, 64.909, -160.800
40.000, 64.922, -161.102
40.582, 64.938, -161.415
41.172, 64.954, -161.742
41.771, 64.968, -162.057
42.379, 64.984, -162.356
42.995, 65.004, -162.668
43.620, 65.023, -163.005
44.255, 65.040, -163.347
44.898, 65.055, -163.687
45.552, 65.069, -164.031
46.214, 65.080, -164.375
46.886, 65.090, -164.705
47.568, 65.101, -165.028
48.260, 65.111, -165.354
48.962, 65.121, -165.677
49.674, 65.132, -165.999
50.397, 65.142, -166.330
51.130, 65.148, -166.649
51.874, 65.156, -166.942
52.628, 65.167, -167.250
53.394, 65.174, -167.572
54.170, 65.178, -167.858
54.958, 65.191, -168.143
55.758, 65.202, -168.502
56.569, 65.200, -168.863
57.391, 65.197, -169.138
58.226, 65.205, -169.390
59.073, 65.218, -169.702
59.932, 65.225, -170.038
60.804, 65.228, -170.340
61.688, 65.235, -170.627
62.586, 65.242, -170.922
63.496, 65.248, -171.219
64.420, 65.254, -171.513
65.357, 65.259, -171.811
66.307, 65.262, -172.114
67.272, 65.264, -172.408
68.250, 65.268, -172.704
69.243, 65.272, -173.004
70.250, 65.277, -173.304
71.272, 65.281, -173.618
72.309, 65.284, -173.932
73.360, 65.286, -174.259
74.427, 65.281, -174.587
75.510, 65.273, -174.863
76.608, 65.272, -175.131
77.723, 65.271, -175.460
78.853, 65.262, -175.786
80.000, 65.253, -176.093
81.164, 65.246, -176.378
82.344, 65.242, -176.675
83.542, 65.237, -176.986
84.757, 65.227, -177.279
85.990, 65.219, -177.537
87.241, 65.212, -177.802
88.510, 65.203, -178.061
89.797, 65.195, -178.323
91.103, 65.189, -178.603
92.428, 65.182, -178.899
93.773, 65.174, -179.209
95.137, 65.164, -179.512
96.520, 65.153, -179.816
97.924, 65.139, 179.892
99.349, 65.124, 179.604
100.794, 65.107, 179.337
102.260, 65.092, 179.075
103.747, 65.076, 178.819
105.256, 65.061, 178.549
106.787, 65.044, 178.261
108.340, 65.027, 177.955
109.916, 65.008, 177.625
111.515, 64.986, 177.296
113.137, 64.958, 176.993
114.783, 64.928, 176.719
116.452, 64.896, 176.456
118.146, 64.862, 176.161
119.865, 64.820, 175.889
121.608, 64.786, 175.660
123.377, 64.750, 175.417
125.171, 64.709, 175.191
126.992, 64.666, 174.978
128.839, 64.618, 174.760
130.713, 64.570, 174.566
132.615, 64.520, 174.392
134.543, 64.465, 174.259
136.500, 64.405, 174.163
138.486, 64.342, 174.088
140.500, 64.276, 174.038
142.544, 64.210, 174.035
144.617, 64.141, 174.106
146.721, 64.069, 174.277
148.855, 63.995, 174.565
151.020, 63.930, 174.906
153.217, 63.866, 175.337
155.445, 63.817, 175.930
157.706, 63.791, 176.670
160.000, 63.798, 177.513
162.327, 63.850, 178.433
164.688, 63.960, 179.266
167.084, 64.128, 179.856
169.514, 64.331, 179.923
171.980, 64.525, 179.404
174.481, 64.668, 178.494
177.019, 64.750, 177.403
179.594, 64.764, 176.304
182.206, 64.727, 175.354
184.856, 64.661, 174.622
187.545, 64.580, 174.149
190.273, 64.499, 173.893
193.041, 64.421, 173.815
195.849, 64.356, 173.924
198.697, 64.309, 174.180
201.587, 64.285, 174.587
204.520, 64.304, 175.129
207.494, 64.384, 175.631
210.512, 64.518, 175.837
213.574, 64.681, 175.560
216.681, 64.837, 174.794
219.833, 64.945, 173.667
223.030, 64.971, 172.467
226.274, 64.959, 171.262
229.565, 64.912, 170.128
232.905, 64.840, 169.149
236.292, 64.749, 168.339
239.729, 64.649, 167.684
243.216, 64.546, 167.137
246.754, 64.443, 166.681
250.343, 64.344, 166.324
253.984, 64.254, 166.043
257.678, 64.168, 165.805
261.426, 64.090, 165.570
265.229, 64.014, 165.351
269.087, 63.936, 165.129
273.001, 63.856, 164.902
276.972, 63.781, 164.699
281.000, 63.690, 164.451
285.088, 63.601, 164.244
289.234, 63.510, 164.058
293.441, 63.415, 163.903
297.710, 63.318, 163.796
302.040, 63.218, 163.709
306.433, 63.117, 163.662
310.890, 63.013, 163.650
315.412, 62.910, 163.680
320.000, 62.805, 163.732
324.655, 62.698, 163.809
329.377, 62.593, 163.941
334.168, 62.484, 164.135
339.028, 62.373, 164.371
343.959, 62.263, 164.652
348.962, 62.156, 164.978
354.038, 62.047, 165.338
359.188, 61.941, 165.749
364.412, 61.838, 166.197
369.713, 61.732, 166.677
375.090, 61.623, 167.270
380.546, 61.517, 167.942
386.081, 61.410, 168.717
391.697, 61.310, 169.682
397.395, 61.226, 170.765
403.175, 61.165, 171.959
409.039, 61.131, 173.289
414.989, 61.138, 174.727
421.025, 61.199, 176.126
427.149, 61.302, 177.350
433.362, 61.431, 178.279
439.665, 61.574, 178.963
446.060, 61.711, 179.382
452.548, 61.836, 179.585
459.131, 61.945, 179.617
465.809, 62.034, 179.508
472.584, 62.101, 179.368
479.458, 62.142, 179.225
486.432, 62.168, 179.120
493.507, 62.178, 179.093
500.686, 62.182, 179.109
507.968, 62.184, 179.199
515.357, 62.183, 179.398
522.853, 62.187, 179.676
530.458, 62.198, -179.993
538.174, 62.224, -179.634
546.002, 62.260, -179.297
553.943, 62.306, -179.008
562.001, 62.354, -178.795
570.175, 62.403, -178.641
578.469, 62.454, -178.490
586.883, 62.511, -178.389
595.419, 62.567, -178.348
604.080, 62.612, -178.379
612.866, 62.652, -178.497
621.780, 62.679, -178.649
630.824, 62.690, -178.769
640.000, 62.687, -178.831
649.309, 62.675, -178.841
658.753, 62.657, -178.763
668.335, 62.640, -178.618
678.056, 62.628, -178.430
687.919, 62.619, -178.200
697.925, 62.608, -177.919
708.076, 62.595, -177.576
718.376, 62.583, -177.185
728.825, 62.580, -176.738
739.426, 62.587, -176.236
750.181, 62.602, -175.700
761.093, 62.625, -175.118
772.163, 62.654, -174.518
783.394, 62.691, -173.904
794.789, 62.740, -173.312
806.349, 62.797, -172.721
818.078, 62.862, -172.149
829.977, 62.930, -171.572
842.050, 63.001, -170.999
854.297, 63.080, -170.442
866.724, 63.161, -169.862
879.330, 63.246, -169.267
892.120, 63.341, -168.667
905.097, 63.447, -168.068
918.262, 63.560, -167.455
931.618, 63.679, -166.848
945.169, 63.808, -166.255
958.917, 63.943, -165.677
972.864, 64.086, -165.110
987.015, 64.240, -164.575
1001.371, 64.403, -164.057
1015.937, 64.575, -163.565
1030.714, 64.755, -163.100
1045.706, 64.944, -162.675
1060.916, 65.141, -162.273
1076.347, 65.345, -161.913
1092.003, 65.557, -161.586
1107.887, 65.781, -161.301
1124.001, 66.010, -161.041
1140.350, 66.248, -160.819
1156.937, 66.498, -160.641
1173.765, 66.760, -160.509
1190.838, 67.035, -160.436
1208.159, 67.324, -160.431
1225.732, 67.627, -160.509
1243.561, 67.948, -160.701
1261.649, 68.280, -161.012
1280.000, 68.619, -161.452
1298.618, 68.969, -162.054
1317.507, 69.331, -162.829
1336.670, 69.700, -163.788
1356.113, 70.074, -164.952
1375.838, 70.451, -166.339
1395.850, 70.827, -167.973
1416.153, 71.200, -169.873
1436.751, 71.562, -172.072
1457.649, 71.904, -174.566
1478.851, 72.219, -177.391
1500.362, 72.492, 179.490
1522.185, 72.719, 176.067
1544.326, 72.881, 172.433
1566.789, 72.973, 168.645
1589.578, 72.989, 164.806
1612.699, 72.920, 161.064
1636.156, 72.773, 157.523
1659.955, 72.562, 154.305
1684.099, 72.301, 151.489
1708.595, 72.001, 149.147
1733.447, 71.679, 147.294
1758.661, 71.355, 145.924
1784.241, 71.045, 144.999
1810.193, 70.762, 144.456
1836.523, 70.515, 144.215
1863.236, 70.312, 144.170
1890.338, 70.159, 144.215
1917.833, 70.050, 144.237
1945.729, 69.968, 144.168
1974.030, 69.900, 143.952
2002.743, 69.831, 143.598
2031.873, 69.749, 143.151
2061.428, 69.646, 142.678
2091.412, 69.518, 142.275
2121.832, 69.373, 142.003
2152.695, 69.220, 141.901
2184.007, 69.061, 142.012
2215.774, 68.909, 142.324
2248.003, 68.770, 142.828
2280.701, 68.651, 143.506
2313.874, 68.560, 144.335
2347.530, 68.502, 145.291
2381.676, 68.484, 146.335
2416.318, 68.500, 147.448
2451.464, 68.552, 148.583
2487.122, 68.640, 149.710
2523.298, 68.774, 150.772
2560.000, 68.948, 151.741
2597.236, 69.158, 152.564
2635.014, 69.403, 153.193
2673.341, 69.687, 153.555
2712.226, 70.006, 153.586
2751.676, 70.350, 153.202
2791.700, 70.711, 152.309
2832.306, 71.071, 150.816
2873.503, 71.400, 148.656
2915.299, 71.666, 145.788
2957.703, 71.824, 142.273
3000.724, 71.839, 138.274
3044.370, 71.674, 134.107
3088.652, 71.305, 130.222
3133.577, 70.745, 127.101
3179.156, 70.034, 125.211
3225.398, 69.240, 124.927
3272.312, 68.456, 126.466
3319.909, 67.813, 129.716
3368.198, 67.429, 134.086
3417.190, 67.356, 138.537
3466.894, 67.521, 142.051
3517.321, 67.775, 144.225
3568.482, 68.003, 145.299
3620.387, 68.154, 145.825
3673.046, 68.235, 146.270
3726.472, 68.282, 146.903
3780.675, 68.341, 147.792
3835.666, 68.449, 148.855
3891.457, 68.630, 149.899
3948.060, 68.908, 150.633
4005.486, 69.293, 150.591
4063.747, 69.738, 149.084
4122.855, 70.088, 145.607
4182.824, 70.141, 140.533
4243.664, 69.787, 135.186
4305.390, 69.059, 131.015
4368.013, 68.083, 128.934
4431.547, 67.016, 129.291
4496.005, 66.009, 131.932
4561.401, 65.180, 136.232
4627.749, 64.576, 141.398
4695.061, 64.176, 146.808
4763.352, 63.924, 152.182
4832.637, 63.773, 157.493
4902.929, 63.708, 162.822
4974.244, 63.732, 168.223
5046.596, 63.857, 173.689
5120.000, 64.092, 179.150
5194.472, 64.456, -175.518
5270.027, 64.955, -170.463
5346.682, 65.594, -165.889
5424.451, 66.372, -162.052
5503.352, 67.279, -159.284
5583.399, 68.279, -157.990
5664.612, 69.298, -158.590
5747.006, 70.205, -161.318
5830.598, 70.838, -165.843
5915.406, 71.085, -171.106
6001.447, 70.957, -175.710
6088.740, 70.583, -178.666
6177.303, 70.130, -179.731
6267.154, 69.741, -179.221
6358.312, 69.494, -177.642
6450.796, 69.414, -175.506
6544.625, 69.515, -173.313
6639.818, 69.790, -171.521
6736.397, 70.214, -170.542
6834.380, 70.750, -170.779
6933.789, 71.340, -172.618
7034.643, 71.901, -176.417
7136.964, 72.310, 177.626
7240.773, 72.415, 169.709
7346.093, 72.077, 160.644
7452.944, 71.250, 151.823
7561.350, 70.005, 144.152
7671.332, 68.338, 138.117
7782.915, 66.228, 135.285
7896.120, 63.870, 137.641
8010.971, 61.778, 145.794
8127.493, 60.573, 156.459
8245.711, 60.102, 164.635
8365.647, 59.681, 169.505
8487.328, 58.997, 173.420
8610.779, 58.119, 178.226
8736.026, 57.211, -175.562
8863.095, 56.378, -168.041
8992.011, 55.733, -159.208
9122.803, 55.425, -150.484
9255.497, 55.236, -142.859
9390.121, 55.091, -135.319
9526.704, 55.129, -128.066
9665.273, 55.356, -122.018
9805.857, 55.711, -118.319
9948.487, 55.952, -118.696
10093.191, 55.424, -123.728
10240.000, 53.302, -126.778
10388.944, 49.887, -114.361
10540.055, 47.923, -85.759
10693.363, 48.998, -59.030
10848.902, 51.021, -42.134
11006.703, 53.054, -31.774
11166.799, 55.022, -25.533
11329.224, 56.917, -22.923
11494.012, 58.628, -24.238
11661.195, 59.911, -29.386
11830.812, 60.525, -36.842
12002.895, 60.447, -44.002
12177.480, 59.875, -49.043
12354.606, 59.044, -51.595
12534.309, 58.100, -52.008
12716.624, 57.110, -50.394
12901.592, 56.197, -46.705
13089.250, 55.517, -41.708
13279.637, 55.087, -36.527
13472.794, 54.851, -31.718
13668.760, 54.775, -27.580
13867.577, 54.892, -24.564
14069.285, 55.133, -24.670
14273.928, 54.881, -28.439
14481.547, 53.818, -30.504
14692.186, 52.704, -26.063
14905.889, 52.860, -21.187
15122.700, 53.529, -26.334
15342.664, 53.063, -41.461
15565.829, 50.686, -57.312
15792.239, 46.597, -65.112
16021.942, 41.138, -55.412
16254.986, 36.726, -24.101
16491.422, 36.345, 1.264
16731.295, 36.336, 14.377
16974.656, 35.905, 24.835
17221.559, 35.444, 34.707
17472.053, 35.167, 43.316
17726.189, 35.160, 48.635
17984.021, 35.310, 46.742
18245.605, 34.931, 32.897
18510.994, 33.506, 8.981
18780.242, 33.857, -20.035
19053.408, 37.712, -59.632
19330.547, 40.195, -100.496
19611.715, 42.116, -124.739
19896.975, 43.705, -146.652
