* Measurement data measured by REW V5.19
* Source: ASIO MOTU M Series, In 1
* Format: 1M Log Swept Sine, 1 sweep at -3.0 dBFS  With no timing reference
* Dated: 8 May, 2023 5:32:34 PM
* REW Settings:
*  C-weighting compensation: Off
*  Target level: 75.0 dB
* Note: ; 
* Measurement: May 8 17:32:34
* Smoothing: 1/48 octave
* Frequency Step: 1/48 octave
* Start Frequency: 10.1 Hz
*
* Freq(Hz), SPL(dB), Phase(degrees)
10.145, 66.498, -100.050
10.293, 66.550, -100.789
10.443, 66.605, -101.781
10.595, 66.690, -103.079
10.749, 66.779, -104.434
10.905, 66.847, -105.469
11.064, 66.907, -106.395
11.225, 66.974, -107.457
11.388, 67.043, -108.580
11.554, 67.109, -109.668
11.722, 67.171, -110.736
11.892, 67.229, -111.792
12.065, 67.286, -112.837
12.241, 67.340, -113.892
12.419, 67.393, -114.945
12.599, 67.443, -115.960
12.782, 67.492, -116.956
12.968, 67.540, -117.954
13.157, 67.588, -118.941
13.348, 67.635, -119.908
13.543, 67.683, -120.872
13.740, 67.730, -121.835
13.939, 67.776, -122.798
14.142, 67.821, -123.760
14.348, 67.865, -124.721
14.557, 67.906, -125.679
14.768, 67.946, -126.635
14.983, 67.984, -127.581
15.201, 68.020, -128.517
15.422, 68.055, -129.443
15.646, 68.089, -130.359
15.874, 68.123, -131.268
16.105, 68.155, -132.173
16.339, 68.187, -133.075
16.577, 68.218, -133.975
16.818, 68.247, -134.872
17.063, 68.274, -135.762
17.311, 68.299, -136.642
17.563, 68.323, -137.509
17.818, 68.346, -138.364
18.077, 68.369, -139.207
18.340, 68.393, -140.043
18.607, 68.416, -140.878
18.877, 68.440, -141.716
19.152, 68.462, -142.558
19.431, 68.482, -143.404
19.713, 68.499, -144.250
20.000, 68.513, -145.087
20.291, 68.524, -145.909
20.586, 68.533, -146.710
20.885, 68.542, -147.488
21.189, 68.551, -148.245
21.497, 68.563, -148.993
21.810, 68.577, -149.745
22.127, 68.591, -150.515
22.449, 68.603, -151.307
22.776, 68.611, -152.113
23.107, 68.611, -152.914
23.443, 68.606, -153.683
23.784, 68.599, -154.404
24.130, 68.594, -155.077
24.481, 68.595, -155.729
24.837, 68.602, -156.393
25.198, 68.612, -157.098
25.565, 68.618, -157.845
25.937, 68.617, -158.608
26.314, 68.608, -159.348
26.697, 68.597, -160.041
27.085, 68.588, -160.695
27.479, 68.585, -161.344
27.879, 68.585, -162.019
28.284, 68.582, -162.727
28.696, 68.573, -163.443
29.113, 68.559, -164.133
29.537, 68.544, -164.785
29.966, 68.532, -165.418
30.402, 68.523, -166.063
30.844, 68.512, -166.728
31.293, 68.496, -167.390
31.748, 68.476, -168.014
32.210, 68.457, -168.593
32.678, 68.446, -169.157
33.154, 68.440, -169.750
33.636, 68.433, -170.389
34.125, 68.418, -171.054
34.621, 68.397, -171.701
35.125, 68.372, -172.306
35.636, 68.350, -172.878
36.154, 68.331, -173.447
36.680, 68.312, -174.031
37.214, 68.291, -174.623
37.755, 68.268, -175.208
38.304, 68.245, -175.784
38.861, 68.221, -176.364
39.427, 68.193, -176.941
40.000, 68.164, -177.494
40.582, 68.136, -178.027
41.172, 68.111, -178.570
41.771, 68.083, -179.131
42.379, 68.051, -179.683
42.995, 68.019, 179.779
43.620, 67.985, 179.234
44.255, 67.946, 178.707
44.898, 67.907, 178.243
45.552, 67.881, 177.787
46.214, 67.858, 177.243
46.886, 67.822, 176.652
47.568, 67.778, 176.133
48.260, 67.742, 175.655
48.962, 67.708, 175.127
49.674, 67.666, 174.630
50.397, 67.637, 174.214
51.130, 67.627, 173.647
51.874, 67.589, 172.855
52.628, 67.499, 172.234
53.394, 67.423, 171.981
54.170, 67.391, 171.713
54.958, 67.360, 171.251
55.758, 67.313, 170.800
56.569, 67.267, 170.373
57.391, 67.217, 169.944
58.226, 67.172, 169.544
59.073, 67.128, 169.054
59.932, 67.062, 168.584
60.804, 67.004, 168.262
61.688, 66.962, 167.867
62.586, 66.907, 167.424
63.496, 66.853, 167.051
64.420, 66.805, 166.646
65.357, 66.753, 166.239
66.307, 66.701, 165.824
67.272, 66.642, 165.425
68.250, 66.590, 165.068
69.243, 66.539, 164.627
70.250, 66.473, 164.172
71.272, 66.399, 163.755
72.309, 66.323, 163.383
73.360, 66.247, 163.024
74.427, 66.174, 162.719
75.510, 66.116, 162.364
76.608, 66.045, 161.950
77.723, 65.977, 161.604
78.853, 65.905, 161.207
80.000, 65.825, 160.880
81.164, 65.746, 160.553
82.344, 65.664, 160.264
83.542, 65.587, 159.959
84.757, 65.505, 159.622
85.990, 65.420, 159.316
87.241, 65.334, 159.024
88.510, 65.248, 158.776
89.797, 65.161, 158.542
91.103, 65.081, 158.298
92.428, 64.976, 157.960
93.773, 64.873, 157.883
95.137, 64.792, 157.658
96.520, 64.700, 157.432
97.924, 64.612, 157.206
99.349, 64.518, 156.927
100.794, 64.412, 156.767
102.260, 64.314, 156.625
103.747, 64.214, 156.517
105.256, 64.105, 156.344
106.787, 63.986, 156.275
108.340, 63.882, 156.129
109.916, 63.743, 155.929
111.515, 63.621, 156.030
113.137, 63.515, 156.057
114.783, 63.417, 156.084
116.452, 63.299, 156.073
118.146, 63.175, 156.089
119.865, 63.040, 156.138
121.608, 62.924, 156.175
123.377, 62.808, 156.142
125.171, 62.684, 156.212
126.992, 62.600, 156.572
128.839, 62.518, 156.750
130.713, 62.337, 156.889
132.615, 62.190, 157.238
134.543, 61.978, 157.410
136.500, 61.832, 157.659
138.486, 61.657, 158.075
140.500, 61.619, 158.702
142.544, 61.367, 159.098
144.617, 61.296, 160.438
146.721, 61.155, 160.545
148.855, 61.007, 161.599
151.020, 60.911, 162.389
153.217, 60.768, 163.582
155.445, 60.709, 164.876
157.706, 60.684, 165.684
160.000, 60.637, 166.342
162.327, 60.581, 167.088
164.688, 60.510, 167.790
167.084, 60.443, 168.688
169.514, 60.371, 169.536
171.980, 60.296, 170.638
174.481, 60.261, 171.623
177.019, 60.225, 172.563
179.594, 60.214, 173.607
182.206, 60.205, 174.575
184.856, 60.176, 175.535
187.545, 60.164, 176.644
190.273, 60.172, 177.779
193.041, 60.194, 179.079
195.849, 60.247, -179.590
198.697, 60.333, -178.377
201.587, 60.448, -177.343
204.520, 60.586, -176.538
207.494, 60.735, -175.889
210.512, 60.889, -175.426
213.574, 61.036, -175.139
216.681, 61.165, -175.087
219.833, 61.278, -175.176
223.030, 61.372, -175.443
226.274, 61.430, -175.813
229.565, 61.471, -176.102
232.905, 61.494, -176.367
236.292, 61.485, -176.526
239.729, 61.478, -176.716
243.216, 61.476, -176.837
246.754, 61.459, -176.739
250.343, 61.437, -176.848
253.984, 61.386, -176.914
257.678, 61.379, -176.687
261.426, 61.349, -176.706
265.229, 61.287, -176.438
269.087, 61.261, -176.180
273.001, 61.228, -176.004
276.972, 61.190, -175.659
281.000, 61.161, -175.264
285.088, 61.141, -175.064
289.234, 61.101, -174.819
293.441, 61.094, -174.418
297.710, 61.055, -174.251
302.040, 61.038, -174.333
306.433, 61.048, -173.836
310.890, 60.970, -173.415
315.412, 60.975, -173.165
320.000, 60.927, -172.432
324.655, 60.860, -172.371
329.377, 60.802, -171.944
334.168, 60.738, -171.590
339.028, 60.711, -171.105
343.959, 60.663, -170.502
348.962, 60.625, -169.971
354.038, 60.574, -169.467
359.188, 60.526, -168.843
364.412, 60.474, -168.186
369.713, 60.409, -167.483
375.090, 60.352, -166.659
380.546, 60.285, -165.640
386.081, 60.231, -164.616
391.697, 60.186, -163.428
397.395, 60.153, -162.068
403.175, 60.157, -160.564
409.039, 60.191, -159.031
414.989, 60.276, -157.440
421.025, 60.380, -156.046
427.149, 60.505, -154.791
433.362, 60.658, -153.656
439.665, 60.821, -152.740
446.060, 60.983, -151.949
452.548, 61.146, -151.279
459.131, 61.316, -150.818
465.809, 61.461, -150.543
472.584, 61.611, -150.157
479.458, 61.759, -149.970
486.432, 61.881, -149.895
493.507, 61.985, -149.916
500.686, 62.071, -149.911
507.968, 62.151, -149.820
515.357, 62.217, -149.736
522.853, 62.275, -149.593
530.458, 62.326, -149.376
538.174, 62.381, -149.127
546.002, 62.438, -148.840
553.943, 62.499, -148.515
562.001, 62.567, -148.176
570.175, 62.643, -147.859
578.469, 62.722, -147.562
586.883, 62.802, -147.308
595.419, 62.880, -147.092
604.080, 62.955, -146.904
612.866, 63.026, -146.728
621.780, 63.095, -146.578
630.824, 63.158, -146.453
640.000, 63.214, -146.287
649.309, 63.272, -146.118
658.753, 63.326, -145.958
668.335, 63.375, -145.789
678.056, 63.418, -145.600
687.919, 63.459, -145.365
697.925, 63.501, -145.097
708.076, 63.542, -144.797
718.376, 63.585, -144.471
728.825, 63.629, -144.116
739.426, 63.676, -143.734
750.181, 63.727, -143.326
761.093, 63.782, -142.891
772.163, 63.843, -142.442
783.394, 63.911, -142.004
794.789, 63.984, -141.570
806.349, 64.062, -141.147
818.078, 64.143, -140.744
829.977, 64.226, -140.365
842.050, 64.310, -140.002
854.297, 64.395, -139.653
866.724, 64.481, -139.330
879.330, 64.566, -138.991
892.120, 64.651, -138.672
905.097, 64.737, -138.339
918.262, 64.819, -137.912
931.618, 64.901, -137.505
945.169, 65.002, -137.509
958.917, 65.109, -137.119
972.864, 65.207, -136.726
987.015, 65.306, -136.432
1001.371, 65.410, -136.167
1015.937, 65.515, -135.921
1030.714, 65.620, -135.699
1045.706, 65.725, -135.495
1060.916, 65.829, -135.303
1076.347, 65.933, -135.115
1092.003, 66.037, -134.945
1107.887, 66.141, -134.780
1124.001, 66.243, -134.634
1140.350, 66.346, -134.491
1156.937, 66.448, -134.354
1173.765, 66.550, -134.225
1190.838, 66.651, -134.093
1208.159, 66.750, -133.960
1225.732, 66.850, -133.824
1243.561, 66.949, -133.678
1261.649, 67.050, -133.523
1280.000, 67.151, -133.357
1298.618, 67.256, -133.178
1317.507, 67.364, -132.994
1336.670, 67.475, -132.804
1356.113, 67.592, -132.615
1375.838, 67.716, -132.436
1395.850, 67.844, -132.277
1416.153, 67.978, -132.144
1436.751, 68.116, -132.054
1457.649, 68.258, -132.009
1478.851, 68.401, -132.015
1500.362, 68.544, -132.077
1522.185, 68.685, -132.189
1544.326, 68.821, -132.344
1566.789, 68.951, -132.528
1589.578, 69.075, -132.724
1612.699, 69.194, -132.916
1636.156, 69.309, -133.091
1659.955, 69.423, -133.245
1684.099, 69.537, -133.378
1708.595, 69.654, -133.499
1733.447, 69.774, -133.618
1758.661, 69.899, -133.744
1784.241, 70.026, -133.885
1810.193, 70.157, -134.049
1836.523, 70.289, -134.238
1863.236, 70.423, -134.455
1890.338, 70.557, -134.698
1917.833, 70.691, -134.965
1945.729, 70.825, -135.255
1974.030, 70.959, -135.565
2002.743, 71.092, -135.896
2031.873, 71.225, -136.244
2061.428, 71.359, -136.609
2091.412, 71.492, -136.991
2121.832, 71.627, -137.390
2152.695, 71.762, -137.807
2184.007, 71.899, -138.246
2215.774, 72.038, -138.711
2248.003, 72.178, -139.211
2280.701, 72.321, -139.751
2313.874, 72.464, -140.338
2347.530, 72.607, -140.978
2381.676, 72.747, -141.671
2416.318, 72.885, -142.415
2451.464, 73.019, -143.207
2487.122, 73.148, -144.042
2523.298, 73.272, -144.916
2560.000, 73.392, -145.825
2597.236, 73.506, -146.769
2635.014, 73.615, -147.745
2673.341, 73.719, -148.754
2712.226, 73.818, -149.798
2751.676, 73.911, -150.878
2791.700, 73.998, -151.997
2832.306, 74.077, -153.153
2873.503, 74.147, -154.345
2915.299, 74.209, -155.565
2957.703, 74.260, -156.807
3000.724, 74.300, -158.064
3044.370, 74.331, -159.329
3088.652, 74.351, -160.597
3133.577, 74.361, -161.860
3179.156, 74.362, -163.117
3225.398, 74.354, -164.362
3272.312, 74.336, -165.592
3319.909, 74.311, -166.805
3368.198, 74.277, -168.000
3417.190, 74.237, -169.172
3466.894, 74.189, -170.322
3517.321, 74.135, -171.450
3568.482, 74.074, -172.557
3620.387, 74.008, -173.642
3673.046, 73.937, -174.708
3726.472, 73.859, -175.754
3780.675, 73.775, -176.775
3835.666, 73.686, -177.770
3891.457, 73.594, -178.743
3948.060, 73.497, -179.703
4005.486, 73.396, 179.343
4063.747, 73.288, 178.398
4122.855, 73.174, 177.465
4182.824, 73.051, 176.546
4243.664, 72.921, 175.648
4305.390, 72.783, 174.774
4368.013, 72.636, 173.931
4431.547, 72.481, 173.123
4496.005, 72.316, 172.358
4561.401, 72.143, 171.642
4627.749, 71.961, 170.984
4695.061, 71.771, 170.393
4763.352, 71.573, 169.880
4832.637, 71.369, 169.450
4902.929, 71.159, 169.115
4974.244, 70.945, 168.879
5046.596, 70.729, 168.739
5120.000, 70.511, 168.704
5194.472, 70.293, 168.786
5270.027, 70.077, 168.979
5346.682, 69.866, 169.277
5424.451, 69.660, 169.677
5503.352, 69.461, 170.177
5583.399, 69.269, 170.772
5664.612, 69.086, 171.461
5747.006, 68.914, 172.237
5830.598, 68.754, 173.094
5915.406, 68.608, 174.023
6001.447, 68.477, 175.014
6088.740, 68.362, 176.064
6177.303, 68.266, 177.167
6267.154, 68.191, 178.295
6358.312, 68.137, 179.436
6450.796, 68.107, -179.425
6544.625, 68.100, -178.310
6639.818, 68.120, -177.239
6736.397, 68.167, -176.239
6834.380, 68.241, -175.338
6933.789, 68.345, -174.571
7034.643, 68.478, -173.986
7136.964, 68.638, -173.643
7240.773, 68.820, -173.570
7346.093, 69.024, -173.798
7452.944, 69.252, -174.409
7561.350, 69.501, -175.537
7671.332, 69.752, -177.417
7782.915, 69.948, 179.803
7896.120, 70.025, 176.239
8010.971, 69.932, 172.222
8127.493, 69.646, 168.237
8245.711, 69.186, 164.793
8365.647, 68.599, 162.226
8487.328, 67.947, 160.646
8610.779, 67.278, 159.983
8736.026, 66.619, 160.113
8863.095, 65.992, 160.930
8992.011, 65.411, 162.334
9122.803, 64.886, 164.221
9255.497, 64.428, 166.498
9390.121, 64.042, 169.075
9526.704, 63.736, 171.861
9665.273, 63.515, 174.767
9805.857, 63.387, 177.682
9948.487, 63.356, -179.516
10093.191, 63.429, -176.979
10240.000, 63.607, -174.912
10388.944, 63.882, -173.590
10540.055, 64.225, -173.299
10693.363, 64.607, -174.371
10848.902, 64.908, -177.358
11006.703, 64.944, 178.036
11166.799, 64.576, 172.943
11329.224, 63.792, 169.155
11494.012, 62.766, 168.169
11661.195, 61.793, 170.323
11830.812, 61.164, 174.587
12002.895, 61.010, 178.897
12177.480, 61.187, -178.841
12354.606, 61.365, -179.470
12534.309, 61.242, 177.935
12716.624, 60.720, 175.388
12901.592, 59.925, 174.555
13089.250, 59.078, 175.871
13279.637, 58.340, 178.952
13472.794, 57.811, -176.750
13668.760, 57.544, -171.911
13867.577, 57.545, -167.108
14069.285, 57.816, -162.768
14273.928, 58.372, -159.373
14481.547, 59.251, -157.619
14692.186, 60.478, -158.915
14905.889, 61.896, -165.832
15122.700, 62.871, 178.742
15342.664, 62.353, 157.249
15565.829, 60.080, 140.107
15792.239, 56.985, 132.409
16021.942, 53.903, 131.946
16254.986, 51.175, 137.789
16491.422, 49.566, 143.902
16731.295, 47.877, 147.202
16974.656, 46.070, 152.875
17221.559, 44.430, 159.798
17472.053, 42.923, 167.341
17726.189, 41.484, 175.402
17984.021, 40.063, -175.961
18245.605, 38.585, -166.479
18510.994, 36.940, -155.371
18780.242, 34.991, -139.424
19053.408, 33.259, -111.770
19330.547, 35.123, -72.606
19611.715, 40.918, -48.435
19896.975, 45.410, -52.690
