* Measurement data measured by REW V5.20.13
* Source: USB Sound Device        , MICROPHONE, R, volume: 0.697
* Format: 256k Log Swept Sine, 1 sweep at -6.0 dBFS with no timing reference
* Dated: Dec 4, 2023 2:29:27 AM
* REW Settings:
*  C-weighting compensation: Off
*  Target level: 75.0 dB
* Note: @iemworld / EPZ G10 / XDUOO XD-05 PRO # AKM4499 - MUSES 01 / www.iem-world.com; 
* Measurement: EPZ G10 FOAM L
* Smoothing: None
* Frequency Step: 1/48 octave
* Start Frequency: 20.000 Hz
*
* Freq(Hz)	SPL(dB)	Phase(degrees)
20.000000	80.629	-145.6224
20.299999	80.764	-145.5473
20.600000	80.877	-145.3871
20.900000	80.963	-145.2179
21.200001	81.014	-145.0711
21.400000	81.027	-144.9686
21.799999	81.012	-144.7343
22.000000	80.992	-144.6156
22.400000	80.939	-144.4654
22.700001	80.891	-144.5376
23.000000	80.830	-144.8302
23.299999	80.747	-145.3042
23.600000	80.649	-145.8878
24.000000	80.514	-146.7418
24.299999	80.431	-147.4344
24.700001	80.362	-148.5103
25.000000	80.340	-149.4811
25.400000	80.336	-150.9576
25.799999	80.350	-152.4721
26.200001	80.387	-153.8506
26.500000	80.435	-154.7558
26.900000	80.523	-155.8049
27.200001	80.601	-156.4842
27.600000	80.707	-157.2332
28.000000	80.809	-157.7812
28.500000	80.927	-158.2294
29.000000	81.019	-158.5269
29.500000	81.066	-158.6906
30.000000	81.076	-158.6852
30.400000	81.073	-158.6348
30.700001	81.067	-158.6499
31.100000	81.045	-158.8061
31.500000	81.000	-159.0917
32.000000	80.918	-159.5100
32.500000	80.840	-159.9646
33.000000	80.785	-160.5876
33.500000	80.743	-161.4345
34.000000	80.700	-162.3549
34.500000	80.673	-163.1822
35.000000	80.677	-163.9101
35.500000	80.708	-164.6051
36.000000	80.750	-165.2712
36.500000	80.790	-165.8713
37.000000	80.821	-166.3812
37.500000	80.836	-166.7759
38.200001	80.839	-167.1120
38.700001	80.836	-167.2781
39.500000	80.815	-167.6152
40.000000	80.787	-167.8500
40.599998	80.755	-168.1643
41.200001	80.726	-168.6159
41.799999	80.686	-169.1665
42.500000	80.634	-169.7412
43.099998	80.608	-170.1660
43.700001	80.597	-170.6046
44.400002	80.586	-171.1263
45.000000	80.571	-171.5367
45.500000	80.554	-171.8085
46.200001	80.536	-172.0726
46.799999	80.535	-172.3363
47.500000	80.522	-172.8133
48.200001	80.481	-173.2640
48.700001	80.453	-173.5045
49.400002	80.428	-173.8590
50.000000	80.404	-174.1955
50.799999	80.373	-174.5559
51.500000	80.355	-174.8396
52.200001	80.333	-175.1134
53.000000	80.306	-175.3510
53.799999	80.279	-175.6281
54.500000	80.240	-175.9140
55.200001	80.192	-176.1476
56.000000	80.148	-176.3845
57.000000	80.111	-176.7820
58.000000	80.082	-177.2139
59.000000	80.065	-177.6757
60.000000	80.027	-178.0585
60.799999	79.997	-178.1939
61.500000	79.972	-178.3180
62.200001	79.937	-178.4364
63.000000	79.895	-178.5372
64.000000	79.847	-178.7699
65.000000	79.794	-179.0932
66.000000	79.745	-179.4364
67.000000	79.704	-179.7240
68.000000	79.675	-179.9320
69.000000	79.652	179.8769
70.000000	79.610	179.7126
71.000000	79.566	179.6668
72.000000	79.521	179.4897
73.000000	79.451	179.3543
74.000000	79.406	179.3173
75.000000	79.377	179.1039
76.199997	79.331	178.9097
77.500000	79.296	178.6577
78.800003	79.237	178.5774
80.000000	79.196	178.4203
81.199997	79.136	178.3909
82.500000	79.094	178.2913
83.800003	79.050	178.1849
85.000000	78.989	178.0430
86.199997	78.946	178.1435
87.500000	78.904	177.8948
88.500000	78.849	177.8768
90.000000	78.815	177.7968
91.199997	78.771	177.6646
92.500000	78.729	177.7364
93.800003	78.691	177.6324
95.000000	78.626	177.6971
96.199997	78.583	177.7388
97.500000	78.538	177.7394
98.800003	78.500	177.6680
100.000000	78.467	177.6643
101.500000	78.425	177.6216
103.000000	78.367	177.7687
104.400002	78.335	177.8174
106.000000	78.268	177.8476
107.500000	78.226	177.9047
109.000000	78.175	177.9489
110.599998	78.122	178.0459
112.000000	78.101	178.1049
113.800003	78.027	178.0923
115.000000	78.000	178.2245
117.199997	77.934	178.4252
118.000000	77.919	178.4807
120.599998	77.850	178.7258
122.000000	77.817	178.6183
124.099998	77.752	178.7545
125.000000	77.733	178.8245
126.500000	77.691	179.0376
128.000000	77.664	179.0133
131.500000	77.573	179.3336
132.000000	77.560	179.3187
134.000000	77.501	179.6281
136.000000	77.448	179.7562
138.000000	77.403	-179.9490
140.000000	77.355	-179.8106
143.000000	77.289	-179.5677
145.000000	77.266	-179.4268
147.500000	77.208	-179.0255
150.000000	77.163	-178.9562
152.500000	77.102	-178.6587
155.000000	77.052	-178.3623
157.500000	77.007	-178.0559
160.000000	76.965	-177.7816
162.500000	76.931	-177.5579
165.000000	76.900	-177.2289
167.500000	76.842	-176.8872
170.000000	76.802	-176.6185
172.500000	76.746	-176.2015
175.000000	76.693	-175.8443
177.500000	76.669	-175.6171
180.000000	76.639	-175.4361
182.500000	76.608	-175.2397
185.000000	76.553	-174.7178
187.500000	76.545	-174.4654
190.000000	76.506	-174.1666
192.500000	76.466	-173.6759
195.000000	76.425	-173.5364
197.500000	76.407	-173.1619
200.000000	76.383	-172.8888
203.000000	76.334	-172.4728
206.000000	76.299	-172.1519
209.000000	76.267	-171.7642
212.000000	76.232	-171.4079
214.000000	76.196	-171.0336
218.000000	76.163	-170.5306
220.000000	76.163	-170.1951
224.000000	76.112	-169.8285
227.000000	76.079	-169.4058
230.000000	76.038	-168.9927
233.000000	76.025	-168.6172
236.000000	76.004	-168.2323
240.000000	75.962	-167.7266
243.000000	75.950	-167.3541
247.000000	75.932	-166.8125
250.000000	75.902	-166.4347
254.000000	75.869	-165.8631
258.000000	75.837	-165.3010
262.000000	75.811	-164.8661
265.000000	75.787	-164.5519
269.000000	75.770	-164.0208
272.000000	75.733	-163.5341
276.000000	75.720	-162.9922
280.000000	75.701	-162.5790
285.000000	75.662	-161.9204
290.000000	75.657	-161.3295
295.000000	75.642	-160.7091
300.000000	75.599	-159.9886
304.000000	75.595	-159.5742
307.000000	75.584	-159.0485
311.000000	75.557	-158.6681
315.000000	75.567	-158.1778
320.000000	75.533	-157.3287
325.000000	75.535	-156.9328
330.000000	75.514	-156.2675
335.000000	75.485	-155.7171
340.000000	75.481	-155.0645
345.000000	75.484	-154.6449
350.000000	75.456	-154.0096
355.000000	75.441	-153.5654
360.000000	75.425	-152.9001
365.000000	75.436	-152.2421
370.000000	75.430	-151.5435
375.000000	75.406	-151.0262
382.000000	75.381	-150.2891
387.000000	75.388	-149.6844
395.000000	75.393	-148.7454
400.000000	75.376	-148.1656
406.000000	75.357	-147.7305
412.000000	75.350	-146.7529
418.000000	75.340	-146.1037
425.000000	75.320	-145.2787
431.000000	75.333	-144.7090
437.000000	75.308	-144.1293
444.000000	75.310	-143.2793
450.000000	75.304	-142.7188
455.000000	75.298	-142.0823
462.000000	75.285	-141.2255
468.000000	75.318	-140.6225
475.000000	75.298	-139.9576
482.000000	75.283	-139.1986
487.000000	75.276	-138.6012
494.000000	75.318	-137.8052
500.000000	75.299	-137.1004
508.000000	75.313	-136.1358
515.000000	75.306	-135.6209
522.000000	75.298	-134.7655
530.000000	75.314	-133.9572
538.000000	75.317	-132.9456
545.000000	75.323	-132.0995
552.000000	75.337	-131.4453
560.000000	75.334	-130.6800
570.000000	75.340	-129.6523
580.000000	75.384	-128.4910
590.000000	75.363	-127.3255
600.000000	75.409	-126.3840
608.000000	75.408	-125.5928
615.000000	75.416	-125.0224
622.000000	75.430	-124.1612
630.000000	75.449	-123.1561
640.000000	75.485	-122.2394
650.000000	75.518	-121.1758
660.000000	75.519	-120.2870
670.000000	75.533	-119.0742
680.000000	75.568	-118.1224
690.000000	75.608	-117.0276
700.000000	75.631	-115.9418
710.000000	75.676	-115.0465
720.000000	75.709	-113.9947
730.000000	75.751	-112.8727
740.000000	75.769	-111.8290
750.000000	75.838	-110.8499
762.000000	75.855	-109.7162
775.000000	75.933	-108.3802
788.000000	76.010	-107.1779
800.000000	76.059	-106.0015
812.000000	76.130	-104.6957
825.000000	76.192	-103.5064
838.000000	76.269	-102.3102
850.000000	76.350	-101.0798
862.000000	76.409	-100.1285
875.000000	76.511	-98.8913
885.000000	76.539	-98.0241
900.000000	76.673	-96.5939
912.000000	76.751	-95.6049
925.000000	76.880	-94.5717
938.000000	76.940	-93.3697
950.000000	77.054	-92.3922
962.000000	77.141	-91.5255
975.000000	77.237	-90.4733
988.000000	77.350	-89.4686
1000.000000	77.490	-88.8915
1015.000000	77.583	-87.5380
1030.000000	77.694	-86.6051
1044.000000	77.801	-85.6136
1060.000000	77.926	-84.7968
1075.000000	78.079	-83.5560
1090.000000	78.184	-82.9982
1106.000000	78.334	-81.9142
1120.000000	78.438	-81.0380
1138.000000	78.571	-80.2825
1150.000000	78.681	-79.5094
1172.000000	78.845	-78.4223
1180.000000	78.903	-78.0555
1206.000000	79.088	-76.9930
1220.000000	79.181	-76.2665
1241.000000	79.305	-75.2865
1250.000000	79.364	-74.9167
1265.000000	79.444	-74.2025
1280.000000	79.577	-73.4003
1315.000000	79.824	-71.8052
1320.000000	79.838	-71.6659
1340.000000	79.988	-70.8967
1360.000000	80.118	-70.1500
1380.000000	80.240	-69.1720
1400.000000	80.400	-68.4768
1430.000000	80.582	-67.3043
1450.000000	80.724	-66.5448
1475.000000	80.887	-65.8331
1500.000000	81.053	-64.8886
1525.000000	81.207	-63.9762
1550.000000	81.380	-63.2451
1575.000000	81.549	-62.4242
1600.000000	81.687	-61.6666
1625.000000	81.846	-60.9487
1650.000000	82.020	-60.2528
1675.000000	82.169	-59.4750
1700.000000	82.343	-58.9533
1725.000000	82.510	-58.4807
1750.000000	82.670	-57.8900
1775.000000	82.817	-57.3100
1800.000000	82.978	-56.8582
1825.000000	83.134	-56.4314
1850.000000	83.307	-55.9966
1875.000000	83.449	-55.5726
1900.000000	83.605	-55.2491
1925.000000	83.764	-55.0146
1950.000000	83.906	-54.8026
1975.000000	84.065	-54.6488
2000.000000	84.215	-54.6492
2030.000000	84.359	-54.3581
2060.000000	84.509	-54.2975
2090.000000	84.658	-54.2364
2120.000000	84.806	-54.3223
2140.000000	84.900	-54.3208
2180.000000	85.075	-54.5187
2200.000000	85.154	-54.5514
2240.000000	85.293	-54.8730
2270.000000	85.383	-55.1408
2300.000000	85.466	-55.3084
2330.000000	85.547	-55.5471
2360.000000	85.628	-55.7451
2400.000000	85.691	-56.1594
2430.000000	85.735	-56.4222
2470.000000	85.774	-56.6633
2500.000000	85.798	-56.9362
2540.000000	85.826	-57.1485
2580.000000	85.819	-57.4183
2620.000000	85.810	-57.6257
2650.000000	85.805	-57.5823
2690.000000	85.773	-57.7189
2720.000000	85.735	-57.6692
2760.000000	85.700	-57.5777
2800.000000	85.660	-57.5535
2850.000000	85.602	-57.2369
2900.000000	85.530	-56.9590
2950.000000	85.469	-56.5014
3000.000000	85.399	-56.1150
3040.000000	85.360	-55.4395
3070.000000	85.320	-55.0436
3110.000000	85.283	-54.5988
3150.000000	85.230	-53.8893
3200.000000	85.184	-53.1336
3250.000000	85.147	-52.2108
3300.000000	85.110	-51.4071
3350.000000	85.098	-50.4713
3400.000000	85.071	-49.4887
3450.000000	85.067	-48.4765
3500.000000	85.071	-47.5542
3550.000000	85.068	-46.5481
3600.000000	85.091	-45.4345
3650.000000	85.132	-44.5983
3700.000000	85.167	-43.5901
3750.000000	85.225	-42.6977
3820.000000	85.295	-41.4692
3870.000000	85.379	-40.7340
3950.000000	85.509	-39.5116
4000.000000	85.640	-38.6600
4060.000000	85.752	-38.2863
4120.000000	85.849	-37.8303
4180.000000	86.003	-37.5847
4250.000000	86.142	-37.5425
4310.000000	86.257	-37.5147
4370.000000	86.363	-37.7473
4440.000000	86.476	-38.2805
4500.000000	86.522	-38.9658
4550.000000	86.555	-39.6321
4620.000000	86.574	-40.6229
4680.000000	86.549	-41.5530
4750.000000	86.440	-42.6604
4820.000000	86.298	-43.7921
4870.000000	86.170	-44.4309
4940.000000	85.961	-45.2816
5000.000000	85.741	-45.7813
5080.000000	85.413	-46.2535
5150.000000	85.112	-46.4056
5220.000000	84.788	-46.2047
5300.000000	84.397	-45.6831
5380.000000	84.035	-44.8397
5450.000000	83.709	-43.8060
5520.000000	83.411	-42.7475
5600.000000	83.060	-41.0736
5700.000000	82.684	-38.7094
5800.000000	82.320	-36.2822
5900.000000	82.007	-33.4468
6000.000000	81.736	-30.7303
6080.000000	81.554	-28.2655
6150.000000	81.418	-25.9768
6220.000000	81.271	-23.6435
6300.000000	81.219	-21.1117
6400.000000	81.095	-17.9066
6500.000000	81.062	-14.8237
6600.000000	81.078	-11.3922
6700.000000	81.152	-8.6066
6800.000000	81.285	-5.6444
6900.000000	81.400	-3.1230
7000.000000	81.596	-0.7483
7100.000000	81.816	1.5699
7200.000000	82.086	3.2278
7300.000000	82.397	4.5814
7400.000000	82.739	5.3133
7500.000000	83.103	5.5136
7620.000000	83.499	4.9372
7750.000000	83.864	3.1360
7880.000000	84.125	-0.1366
8000.000000	84.161	-3.8971
8120.000000	83.978	-7.9355
8250.000000	83.400	-11.7210
8380.000000	82.671	-14.0326
8500.000000	81.909	-14.8018
8620.000000	81.217	-14.2295
8750.000000	80.519	-12.7188
8850.000000	80.023	-10.9740
9000.000000	79.429	-7.6762
9120.000000	79.032	-4.9422
9250.000000	78.708	-1.9168
9380.000000	78.441	1.4441
9500.000000	78.323	4.6984
9620.000000	78.359	7.8145
9750.000000	78.369	10.7456
9880.000000	78.548	12.8225
10000.000000	78.765	14.7329
10150.000000	79.171	15.7928
10300.000000	79.658	15.2703
10440.000000	80.113	12.3173
10600.000000	80.341	6.6183
10750.000000	80.024	-0.5387
10900.000000	79.150	-6.5960
11060.000000	77.618	-10.1842
11200.000000	76.186	-10.3179
11380.000000	74.665	-5.0476
11500.000000	73.880	0.0062
11720.000000	73.534	10.3587
11800.000000	73.597	12.3547
12060.000000	73.869	14.7964
12200.000000	73.643	13.5541
12410.000000	72.872	13.2647
12500.000000	72.398	14.0325
12650.000000	71.755	15.3347
12800.000000	71.085	18.7068
13150.000000	69.867	26.9351
13200.000000	69.854	27.9678
13400.000000	69.285	33.2605
13600.000000	69.129	38.8084
13800.000000	68.844	42.8898
14000.000000	68.664	46.9143
14300.000000	68.573	52.8304
14500.000000	68.587	55.8967
14750.000000	68.522	58.7969
15000.000000	68.521	61.1814
15250.000000	68.813	62.9531
15500.000000	68.666	62.4196
15750.000000	68.463	62.8783
16000.000000	68.283	64.3539
16250.000000	67.869	66.7583
16500.000000	67.859	66.2355
16750.000000	67.633	68.6402
17000.000000	67.528	71.1380
17250.000000	67.468	70.9764
17500.000000	67.922	69.0965
17750.000000	68.198	67.3006
18000.000000	68.583	61.7617
18250.000000	68.343	54.0801
18500.000000	67.331	44.3922
18750.000000	65.852	36.3499
19000.000000	63.765	33.8378
19250.000000	61.894	31.1789
19500.000000	59.732	28.7996
19750.000000	57.683	30.9932
